{
  "resourceType": "Bundle",
  "type": "transaction",
  "entry": [
    {
      "resource": {
        "resourceType": "Patient",
        "id": "Patient-22276",
        "meta": {
          "versionId": "1",
          "lastUpdated": "2017-07-24T19:36:37.848+00:00"
        },
        "text": {
          "status": "generated",
          "div": "<div xmlns=\"http://www.w3.org/1999/xhtml\"><div class=\"hapiHeaderText\">Andrea Montgomery <b>WOODARD </b></div><table class=\"hapiPropertyTable\"><tbody><tr><td>Identifier</td><td>000000014</td></tr><tr><td>Address</td><td><span>637 Jefferson Court </span><br/><span>West Bloomfield </span><span>MI </span></td></tr><tr><td>Date of birth</td><td><span>07 August 1960</span></td></tr></tbody></table></div>"
        },
        "extension": [
          {
            "url": "http://hl7.org/fhir/StructureDefinition/us-core-race",
            "valueCodeableConcept": {
              "coding": [
                {
                  "system": "http://hl7.org/fhir/v3/Race",
                  "code": "2106-3",
                  "display": "White"
                }
              ]
            }
          },
          {
            "url": "http://hl7.org/fhir/StructureDefinition/us-core-ethnicity",
            "valueCodeableConcept": {
              "coding": [
                {
                  "system": "http://hl7.org/fhir/v3/Ethnicity",
                  "code": "2186-5",
                  "display": "Not Hispanic or Latino"
                }
              ]
            }
          },
          {
            "url": "http://hl7.org/fhir/StructureDefinition/us-core-religion",
            "valueCodeableConcept": {
              "coding": [
                {
                  "system": "http://hl7.org/fhir/v3/ReligiousAffiliation",
                  "code": "1041",
                  "display": "Roman Catholic Church"
                }
              ]
            }
          }
        ],
        "identifier": [
          {
            "use": "official",
            "type": {
              "coding": [
                {
                  "system": "http://hl7.org/fhir/identifier-type",
                  "code": "SB",
                  "display": "Social Beneficiary Identifier"
                }
              ],
              "text": "US Social Security Number"
            },
            "system": "http://hl7.org/fhir/sid/us-ssn",
            "value": "000000014"
          },
          {
            "use": "official",
            "type": {
              "coding": [
                {
                  "system": "http://hl7.org/fhir/identifier-type",
                  "code": "SB",
                  "display": "Social Beneficiary Identifier"
                }
              ],
              "text": "Michigan Common Key Service Identifier"
            },
            "system": "http://mihin.org/fhir/cks",
            "value": "d74e60bc008b463e8072d792aa15095e"
          }
        ],
        "active": true,
        "name": [
          {
            "family": "Woodard",
            "given": [
              "Andrea",
              "Montgomery"
            ]
          }
        ],
        "telecom": [
          {
            "system": "phone",
            "value": "248-555-6663",
            "use": "home"
          },
          {
            "system": "phone",
            "value": "248-555-9907",
            "use": "mobile"
          }
        ],
        "gender": "female",
        "birthDate": "1960-08-07",
        "address": [
          {
            "use": "home",
            "type": "postal",
            "line": [
              "637 Jefferson Court"
            ],
            "city": "West Bloomfield",
            "district": "Oakland County",
            "state": "MI",
            "postalCode": "48322"
          }
        ]
      },
      "request": {
        "method": "PUT",
        "url": "Patient/Patient-22276"
      }
    },
    {
      "resource": {
        "resourceType": "Condition",
        "id": "diabetes-condition",
        "clinicalStatus": "active",
        "verificationStatus": "confirmed",
        "code": {
          "coding": [
            {
              "system": "http://hl7.org/fhir/sid/icd-10-cm",
              "code": "E11.9"
            }
          ]
        },
        "subject": {
          "reference": "Patient/Patient-22276"
        },
        "onsetDateTime": "2012-05-24"
      },
      "request": {
        "method": "PUT",
        "url": "Condition/diabetes-condition"
      }
    },
    {
      "resource": {
        "resourceType": "Observation",
        "id": "creatinine-observation",
        "status": "final",
        "code": {
          "coding": [
            {
              "system": "https://intranet.aumc.nl/labtestcodes",
              "code": "20005",
              "display": "Creatinine(Serum)"
            }
          ]
        },
        "subject": {
          "reference": "Patient/Patient-22276"
        },
        "effectiveDateTime": "2016-04-04T14:34:00+01:00",
        "issued": "2013-04-04T14:34:00+01:00",
        "valueQuantity": {
          "value": 122,
          "unit": "umol/L",
          "system": "http://snomed.info/sct",
          "code": "258814008"
        },
        "interpretation": {
          "coding": [
            {
              "system": "http://snomed.info/sct",
              "code": "166717003",
              "display": "Serum creatinine raised"
            },
            {
              "system": "http://hl7.org/fhir/v2/0078",
              "code": "H"
            }
          ]
        },
        "referenceRange": [
          {
            "low": {
              "value": 64
            },
            "high": {
              "value": 104
            },
            "type": {
              "coding": [
                {
                  "system": "http://hl7.org/fhir/referencerange-meaning",
                  "code": "normal",
                  "display": "Normal Range"
                }
              ]
            }
          }
        ]
      },
      "request": {
        "method": "PUT",
        "url": "Observation/creatinine-observation"
      }
    },
    {
      "resource": {
        "resourceType": "Observation",
        "id": "hba1c-observation",
        "status": "final",
        "code": {
          "coding": [
            {
              "system": "https://intranet.aumc.nl/labtestcodes",
              "code": "20006",
              "display": "HbA1C"
            }
          ]
        },
        "subject": {
          "reference": "Patient/Patient-22276"
        },
        "effectiveDateTime": "2016-04-04T14:34:00+01:00",
        "valueQuantity": {
          "value": 15.2,
          "unit": "mmol/L",
          "system": "http://snomed.info/sct",
          "code": "258814008"
        },
        "interpretation": {
          "coding": [
            {
              "system": "http://hl7.org/fhir/sid/icd-10-cm",
              "code": "R73.09",
              "display": "Other abnormal glucose"
            },
            {
              "system": "http://hl7.org/fhir/v2/0078",
              "code": "H"
            }
          ]
        }
      },
      "request": {
        "method": "PUT",
        "url": "Observation/hba1c-observation"
      }
    },
    {
      "resource": {
        "resourceType": "Observation",
        "id": "ldl-observation",
        "status": "final",
        "code": {
          "coding": [
            {
              "system": "https://intranet.aumc.nl/labtestcodes",
              "code": "20007",
              "display": "LDL"
            }
          ]
        },
        "subject": {
          "reference": "Patient/Patient-22276"
        },
        "effectiveDateTime": "2016-04-04T14:34:00+01:00",
        "valueQuantity": {
          "value": 189,
          "unit": "mg/dL",
          "system": "http://snomed.info/sct",
          "code": "258797006"
        },
        "interpretation": {
          "coding": [
            {
              "system": "http://hl7.org/fhir/sid/icd-10-cm",
              "code": "E78.0",
              "display": "Pure hypercholesterolemia"
            },
            {
              "system": "http://hl7.org/fhir/v2/0078",
              "code": "H"
            }
          ]
        }
      },
      "request": {
        "method": "PUT",
        "url": "Observation/ldl-observation"
      }
    },
    {
      "resource": {
        "resourceType": "Observation",
        "id": "microalbcr-observation",
        "status": "final",
        "code": {
          "coding": [
            {
              "system": "https://intranet.aumc.nl/labtestcodes",
              "code": "20008",
              "display": "Microalbumin/Creatinine"
            }
          ]
        },
        "subject": {
          "reference": "Patient/Patient-22276"
        },
        "effectiveDateTime": "2016-04-04T14:34:00+01:00",
        "valueQuantity": {
          "value": 35,
          "unit": "mcg/mg",
          "system": "http://snomed.info/sct",
          "code": "414718005"
        },
        "interpretation": {
          "coding": [
            {
              "system": "http://hl7.org/fhir/sid/icd-10-cm",
              "code": "R80.3",
              "display": "Bence Jones proteinuria"
            },
            {
              "system": "http://hl7.org/fhir/v2/0078",
              "code": "H"
            }
          ]
        }
      },
      "request": {
        "method": "PUT",
        "url": "Observation/microalbcr-observation"
      }
    },
    {
      "resource": {
        "resourceType": "Observation",
        "id": "foot-exam-observation",
        "status": "final",
        "code": {
          "coding": [
            {
              "system": "https://intranet.aumc.nl/labtestcodes",
              "code": "20009",
              "display": "Foot Exam"
            }
          ]
        },
        "subject": {
          "reference": "Patient/Patient-22276"
        },
        "effectiveDateTime": "2016-04-04T14:34:00+01:00",
        "valueCodeableConcept": {
          "coding": [
            {
              "system": "http://hl7.org/fhir/sid/icd-10-cm",
              "code": "L97.509",
              "display": "Non-pressure chronic ulcer of other part of unspecified foot with unspecified severity"
            }
          ]
        },
        "interpretation": {
          "coding": [
            {
              "system": "http://hl7.org/fhir/sid/icd-10-cm",
              "code": "E11.59",
              "display": "Type 2 diabetes mellitus with other circulatory complications"
            },
            {
              "system": "http://hl7.org/fhir/v2/0078",
              "code": "A"
            }
          ]
        }
      },
      "request": {
        "method": "PUT",
        "url": "Observation/foot-exam-observation"
      }
    },
    {
      "resource": {
        "resourceType": "Observation",
        "id": "eye-exam-observation",
        "status": "final",
        "code": {
          "coding": [
            {
              "system": "https://intranet.aumc.nl/labtestcodes",
              "code": "20010",
              "display": "Eye Exam"
            }
          ]
        },
        "subject": {
          "reference": "Patient/Patient-22276"
        },
        "effectiveDateTime": "2016-04-04T14:34:00+01:00",
        "valueCodeableConcept": {
          "coding": [
            {
              "system": "http://hl7.org/fhir/sid/icd-10-cm",
              "code": "E11.3292",
              "display": "Type 2 diabetes mellitus with mild nonproliferative diabetic retinopathy without macular edema, left eye"
            }
          ]
        },
        "interpretation": {
          "coding": [
            {
              "system": "http://hl7.org/fhir/sid/icd-10-cm",
              "code": "E11.3211",
              "display": "Type 2 diabetes mellitus with mild nonproliferative diabetic retinopathy with macular edema, right eye"
            },
            {
              "system": "http://hl7.org/fhir/v2/0078",
              "code": "A"
            }
          ]
        }
      },
      "request": {
        "method": "PUT",
        "url": "Observation/eye-exam-observation"
      }
    },
    {
      "resource": {
        "resourceType": "PlanDefinition",
        "id": "diabetes-management",
        "type": {
          "coding": [
            {
              "system": "http://hl7.org/fhir/plan-definition-type",
              "code": "eca-rule",
              "display": "ECA Rule"
            }
          ]
        },
        "status": "draft",
        "library": {
          "reference": "Library/diabetesManagement"
        },
        "action": [
          {
            "condition": [
              {
                "kind": "applicability",
                "language": "text/cql",
                "expression": "Has Diabetes"
              }
            ],
            "action": [
              {
                "condition": [
                  {
                    "kind": "applicability",
                    "language": "text/cql",
                    "expression": "Has Abnormal Creatinine"
                  }
                ],
                "dynamicValue": [
                  {
                    "path": "action.title",
                    "expression": "AbnormalCreatinineSummary"
                  },
                  {
                    "path": "action.description",
                    "expression": "AbnormalCreatinineDetail"
                  },
                  {
                    "path": "activity.extension",
                    "expression": "AbnormalCreatinineIndicator"
                  }
                ]
              },
              {
                "condition": [
                  {
                    "kind": "applicability",
                    "language": "text/cql",
                    "expression": "Has Abnormal HbA1C"
                  }
                ],
                "dynamicValue": [
                  {
                    "path": "action.title",
                    "expression": "AbnormalHbA1CSummary"
                  },
                  {
                    "path": "action.description",
                    "expression": "AbnormalHbA1CDetail"
                  },
                  {
                    "path": "activity.extension",
                    "expression": "AbnormalHbA1CIndicator"
                  }
                ]
              },
              {
                "condition": [
                  {
                    "kind": "applicability",
                    "language": "text/cql",
                    "expression": "Has Abnormal LDL"
                  }
                ],
                "dynamicValue": [
                  {
                    "path": "action.title",
                    "expression": "AbnormalLDLSummary"
                  },
                  {
                    "path": "action.description",
                    "expression": "AbnormalLDLDetail"
                  },
                  {
                    "path": "activity.extension",
                    "expression": "AbnormalLDLIndicator"
                  }
                ]
              },
              {
                "condition": [
                  {
                    "kind": "applicability",
                    "language": "text/cql",
                    "expression": "Has Abnormal MicroalbCr"
                  }
                ],
                "dynamicValue": [
                  {
                    "path": "action.title",
                    "expression": "AbnormalMicroalbCrSummary"
                  },
                  {
                    "path": "action.description",
                    "expression": "AbnormalMicroalbCrDetail"
                  },
                  {
                    "path": "activity.extension",
                    "expression": "AbnormalMicroalbCrIndicator"
                  }
                ]
              },
              {
                "condition": [
                  {
                    "kind": "applicability",
                    "language": "text/cql",
                    "expression": "Has Abnormal Foot Exam"
                  }
                ],
                "dynamicValue": [
                  {
                    "path": "action.title",
                    "expression": "AbnormalFootExamSummary"
                  },
                  {
                    "path": "action.description",
                    "expression": "AbnormalFootExamDetail"
                  },
                  {
                    "path": "activity.extension",
                    "expression": "AbnormalFootExamIndicator"
                  }
                ]
              },
              {
                "condition": [
                  {
                    "kind": "applicability",
                    "language": "text/cql",
                    "expression": "Has Abnormal Eye Exam"
                  }
                ],
                "dynamicValue": [
                  {
                    "path": "action.title",
                    "expression": "AbnormalEyeExamSummary"
                  },
                  {
                    "path": "action.description",
                    "expression": "AbnormalEyeExamDetail"
                  },
                  {
                    "path": "activity.extension",
                    "expression": "AbnormalEyeExamIndicator"
                  }
                ]
              }
            ]
          }
        ]
      },
      "request": {
        "method": "PUT",
        "url": "PlanDefinition/diabetes-management"
      }
    },
    {
      "resource": {
        "resourceType": "ValueSet",
        "id": "1.2.3.4.5",
        "url": "http://localhost:8080/cqf-ruler/baseDstu3/ValueSet/1.2.3.4.5",
        "status": "active",
        "compose": {
          "include": [
            {
              "system": "http://hl7.org/fhir/sid/icd-10-cm",
              "version": "2017.1.16AA",
              "concept": [
                {
                  "code": "E11.9",
                  "display": "Type 2 diabetes mellitus without complications"
                },
                {
                  "code": "L97.509",
                  "display": "Non-pressure chronic ulcer of other part of unspecified foot with unspecified severity"
                }
              ]
            }
          ]
        }
      },
      "request": {
        "method": "PUT",
        "url": "ValueSet/1.2.3.4.5"
      }
    },
    {
      "resource": {
        "resourceType": "ValueSet",
        "id": "1.2.3.4.6",
        "url": "http://localhost:8080/cqf-ruler/baseDstu3/ValueSet/1.2.3.4.6",
        "status": "active",
        "compose": {
          "include": [
            {
              "system": "http://hl7.org/fhir/v2/0078",
              "version": "2.8.2",
              "concept": [
                {
                  "code": "A",
                  "display": "Abnormal"
                },
                {
                  "code": "AA",
                  "display": "Critically abnormal"
                },
                {
                  "code": "H",
                  "display": "High"
                },
                {
                  "code": "HH",
                  "display": "Critically high"
                },
                {
                  "code": "HU",
                  "display": "Very high"
                },
                {
                  "code": "L",
                  "display": "Low"
                },
                {
                  "code": "LL",
                  "display": "Critically low"
                },
                {
                  "code": "LU",
                  "display": "Very low"
                }
              ]
            }
          ]
        }
      },
      "request": {
        "method": "PUT",
        "url": "ValueSet/1.2.3.4.6"
      }
    },
    {
      "resource": {
        "resourceType": "ValueSet",
        "id": "1.2.3.4.7",
        "url": "http://localhost:8080/cqf-ruler/baseDstu3/ValueSet/1.2.3.4.7",
        "status": "active",
        "compose": {
          "include": [
            {
              "system": "https://intranet.aumc.nl/labtestcodes",
              "concept": [
                {
                  "code": "20005",
                  "display": "Creatinine(Serum)"
                }
              ]
            },
            {
              "system": "http://loinc.org",
              "concept": [
                {
                  "code": "2160-0",
                  "display": "Creatinine [Mass/volume] in Serum or Plasma"
                },
                {
                  "code": "14682-9",
                  "display": "Creatinine [Moles/volume] in Serum or Plasma"
                },
                {
                  "code": "21232-4",
                  "display": "Creatinine [Mass/volume] in Arterial blood"
                },
                {
                  "code": "38483-4",
                  "display": "Creatinine [Mass/volume] in Blood"
                },
                {
                  "code": "59826-8",
                  "display": "Creatinine [Moles/volume] in Blood"
                }
              ]
            }
          ]
        }
      },
      "request": {
        "method": "PUT",
        "url": "ValueSet/1.2.3.4.7"
      }
    },
    {
      "resource": {
        "resourceType": "ValueSet",
        "id": "1.2.3.4.8",
        "url": "http://localhost:8080/cqf-ruler/baseDstu3/ValueSet/1.2.3.4.8",
        "status": "active",
        "compose": {
          "include": [
            {
              "system": "https://intranet.aumc.nl/labtestcodes",
              "concept": [
                {
                  "code": "20006",
                  "display": "HbA1C"
                }
              ]
            },
            {
              "system": "http://loinc.org",
              "concept": [
                {
                  "code": "59261-8",
                  "display": "Hemoglobin A1c/Hemoglobin.total in Blood by IFCC protocol"
                },
                {
                  "code": "17856-6",
                  "display": "Hemoglobin A1c/Hemoglobin.total in Blood by HPLC"
                },
                {
                  "code": "4548-4",
                  "display": "Hemoglobin A1c/Hemoglobin.total in Blood"
                },
                {
                  "code": "4549-2",
                  "display": "Hemoglobin A1c/Hemoglobin.total in Blood by Electrophoresis"
                }
              ]
            }
          ]
        }
      },
      "request": {
        "method": "PUT",
        "url": "ValueSet/1.2.3.4.8"
      }
    },
    {
      "resource": {
        "resourceType": "ValueSet",
        "id": "1.2.3.4.9",
        "url": "http://localhost:8080/cqf-ruler/baseDstu3/ValueSet/1.2.3.4.9",
        "status": "active",
        "compose": {
          "include": [
            {
              "system": "https://intranet.aumc.nl/labtestcodes",
              "concept": [
                {
                  "code": "20007",
                  "display": "LDL"
                }
              ]
            },
            {
              "system": "http://loinc.org",
              "concept": [
                {
                  "code": "13457-7",
                  "display": "Cholesterol in LDL [Mass/volume] in Serum or Plasma by calculation"
                },
                {
                  "code": "12773-8",
                  "display": "Cholesterol in LDL [Units/volume] in Serum or Plasma by Electrophoresis"
                },
                {
                  "code": "18261-8",
                  "display": "Cholesterol in LDL [Mass/volume] in Serum or Plasma ultracentrifugate"
                },
                {
                  "code": "18262-6",
                  "display": "Cholesterol in LDL [Mass/volume] in Serum or Plasma by Direct assay"
                },
                {
                  "code": "2089-1",
                  "display": "Cholesterol in LDL [Mass/volume] in Serum or Plasma"
                },
                {
                  "code": "22748-8",
                  "display": "Cholesterol in LDL [Moles/volume] in Serum or Plasma"
                },
                {
                  "code": "39469-2",
                  "display": "Cholesterol in LDL [Moles/volume] in Serum or Plasma by calculation"
                },
                {
                  "code": "49132-4",
                  "display": "Cholesterol in LDL [Mass/volume] in Serum or Plasma by Electrophoresis"
                },
                {
                  "code": "55440-2",
                  "display": "Cholesterol.in LDL (real) [Mass/volume] in Serum or Plasma by VAP"
                }
              ]
            }
          ]
        }
      },
      "request": {
        "method": "PUT",
        "url": "ValueSet/1.2.3.4.9"
      }
    },
    {
      "resource": {
        "resourceType": "ValueSet",
        "id": "1.2.3.5.0",
        "url": "http://localhost:8080/cqf-ruler/baseDstu3/ValueSet/1.2.3.5.0",
        "status": "active",
        "compose": {
          "include": [
            {
              "system": "https://intranet.aumc.nl/labtestcodes",
              "concept": [
                {
                  "code": "20008",
                  "display": "Microalbumin/Creatinine"
                }
              ]
            },
            {
              "system": "http://loinc.org",
              "concept": [
                {
                  "code": "14958-3",
                  "display": "Microalbumin/Creatinine [Mass Ratio] in 24 hour Urine"
                },
                {
                  "code": "14959-1",
                  "display": "Microalbumin/Creatinine [Mass Ratio] in Urine"
                },
                {
                  "code": "30000-4",
                  "display": "Microalbumin/Creatinine [Ratio] in Urine"
                },
                {
                  "code": "30001-2",
                  "display": "Microalbumin/Creatinine [Ratio] in Urine by Test strip"
                },
                {
                  "code": "44292-1",
                  "display": "Microalbumin/Creatinine [Mass Ratio] in 12 hour Urine"
                },
                {
                  "code": "59159-4",
                  "display": "Microalbumin/Creatinine [Ratio] in 24 hour Urine"
                }
              ]
            }
          ]
        }
      },
      "request": {
        "method": "PUT",
        "url": "ValueSet/1.2.3.5.0"
      }
    },
    {
      "resource": {
        "resourceType": "ValueSet",
        "id": "1.2.3.5.1",
        "url": "http://localhost:8080/cqf-ruler/baseDstu3/ValueSet/1.2.3.5.1",
        "status": "active",
        "compose": {
          "include": [
            {
              "system": "http://www.nlm.nih.gov/research/umls/rxnorm",
              "concept": [
                {
                  "code": "999996",
                  "display": "Amlodipine 5 MG / Hydrochlorothiazide 12.5 MG / Olmesartan medoxomil 40 MG Oral Tablet"
                }
              ]
            }
          ]
        }
      },
      "request": {
        "method": "PUT",
        "url": "ValueSet/1.2.3.5.1"
      }
    },
    {
      "resource": {
        "resourceType": "ValueSet",
        "id": "1.2.3.5.2",
        "url": "http://localhost:8080/cqf-ruler/baseDstu3/ValueSet/1.2.3.5.2",
        "status": "active",
        "compose": {
          "include": [
            {
              "system": "https://intranet.aumc.nl/labtestcodes",
              "concept": [
                {
                  "code": "20009",
                  "display": "Foot Exam"
                }
              ]
            },
            {
              "system": "http://snomed.info/sct",
              "concept": [
                {
                  "code": "401191002",
                  "display": "Diabetic foot examination (regime/therapy)"
                }
              ]
            }
          ]
        }
      },
      "request": {
        "method": "PUT",
        "url": "ValueSet/1.2.3.5.2"
      }
    },
    {
      "resource": {
        "resourceType": "ValueSet",
        "id": "1.2.3.5.3",
        "url": "http://localhost:8080/cqf-ruler/baseDstu3/ValueSet/1.2.3.5.3",
        "status": "active",
        "compose": {
          "include": [
            {
              "system": "https://intranet.aumc.nl/labtestcodes",
              "concept": [
                {
                  "code": "20010",
                  "display": "Eye Exam"
                }
              ]
            },
            {
              "system": "http://snomed.info/sct",
              "concept": [
                {
                  "code": "722161008",
                  "display": "Diabetic retinal eye exam (procedure)"
                }
              ]
            }
          ]
        }
      },
      "request": {
        "method": "PUT",
        "url": "ValueSet/1.2.3.5.3"
      }
    },
    {
      "resource": {
        "resourceType": "Library",
        "id": "diabetesManagement",
        "version": "1.0",
        "status": "active",
        "experimental": true,
        "type": {
          "coding": [
            {
              "code": "logic-library"
            }
          ]
        },
        "dataRequirement": [
          {
            "type": "Condition",
            "codeFilter": [
              {
                "path": "code",
                "valueSetString": "Diabetes"
              }
            ]
          },
          {
            "type": "Observation",
            "codeFilter": [
              {
                "path": "code",
                "valueSetString": "Creatinine Labs"
              }
            ]
          },
          {
            "type": "Observation",
            "codeFilter": [
              {
                "path": "code",
                "valueSetString": "HbA1C Labs"
              }
            ]
          },
          {
            "type": "Observation",
            "codeFilter": [
              {
                "path": "code",
                "valueSetString": "LDL Labs"
              }
            ]
          },
          {
            "type": "Observation",
            "codeFilter": [
              {
                "path": "code",
                "valueSetString": "MicroalbCr Labs"
              }
            ]
          },
          {
            "type": "Medication",
            "codeFilter": [
              {
                "path": "code",
                "valueSetString": "ACE or ARB Medication"
              }
            ]
          },
          {
            "type": "Observation",
            "codeFilter": [
              {
                "path": "code",
                "valueSetString": "Foot Exam Labs"
              }
            ]
          },
          {
            "type": "Observation",
            "codeFilter": [
              {
                "path": "code",
                "valueSetString": "Eye Exam Labs"
              }
            ]
          }
        ],
        "content": [
          {
            "contentType": "application/elm+xml",
            "data": ""
          }
        ]
      },
      "request": {
        "method": "PUT",
        "url": "Library/diabetesManagement"
      }
    }
  ]
}