{
  "resourceType": "Bundle",
  "id": "HelloWorldPatientView-bundle",
  "type": "transaction",
  "entry": [ {
    "resource": {
      "resourceType": "Library",
      "id": "HelloWorldPatientView",
      "extension": [ {
        "url": "http://hl7.org/fhir/us/cqfmeasures/StructureDefinition/cqfm-softwaresystem",
        "valueReference": {
          "reference": "cqf-tooling"
        }
      } ],
      "url": "http://fhir.org/guides/cdc/opioid-cds/Library/HelloWorldPatientView",
      "version": "1.0.0",
      "name": "HelloWorldPatientView",
      "title": "Library - Hello World (patient-view)",
      "type": {
        "coding": [ {
          "system": "http://hl7.org/fhir/ValueSet/library-type",
          "version": "3.0.0",
          "code": "logic-library",
          "display": "Logic Library"
        } ]
      },
      "date": "2021-05-12T00:00:00-07:00",
      "publisher": "Alphora",
      "description": "Logic library for a simple Hello World recommendation that triggers on patient-view.",
      "purpose": "The purpose of this is to test the system to make sure we have complete end-to-end functionality",
      "usage": "This is to be used in conjunction with a patient-facing FHIR application.",
      "useContext": [ {
        "code": {
          "system": "http://hl7.org/fhir/usage-context-type",
          "version": "3.0.0",
          "code": "focus",
          "display": "Clinical Focus"
        }
      } ],
      "jurisdiction": [ {
        "coding": [ {
          "system": "http://hl7.org/fhir/ValueSet/iso3166-1-3",
          "version": "4.0.1",
          "code": "USA",
          "display": "United States of America"
        } ]
      } ],
      "contact": [ {
        "telecom": [ {
          "system": "url",
          "value": "https://www.alphora.com/"
        } ]
      } ],
      "relatedArtifact": [ {
        "type": "depends-on",
        "display": "FHIR model information",
        "resource": {
          "reference": "Library/FHIR-ModelInfo"
        }
      }, {
        "type": "depends-on",
        "display": "Library FHIRHelpers",
        "resource": {
          "reference": "Library/FHIRHelpers"
        }
      } ],
      "parameter": [ {
        "name": "Patient",
        "use": "out",
        "min": 0,
        "max": "1",
        "type": "Patient"
      }, {
        "name": "Info",
        "use": "out",
        "min": 0,
        "max": "1",
        "type": "string"
      }, {
        "name": "Warning",
        "use": "out",
        "min": 0,
        "max": "1",
        "type": "string"
      }, {
        "name": "Critical",
        "use": "out",
        "min": 0,
        "max": "1",
        "type": "string"
      }, {
        "name": "Main Action Condition Expression Is True",
        "use": "out",
        "min": 0,
        "max": "1",
        "type": "boolean"
      }, {
        "name": "Get Title",
        "use": "out",
        "min": 0,
        "max": "1",
        "type": "string"
      }, {
        "name": "Get Description",
        "use": "out",
        "min": 0,
        "max": "1",
        "type": "string"
      }, {
        "name": "Get Indicator",
        "use": "out",
        "min": 0,
        "max": "1",
        "type": "string"
      } ],
      "dataRequirement": [ {
        "extension": [ {
          "url": "http://hl7.org/fhir/tools/StructureDefinition/original-resource-name",
          "valueCode": "Patient"
        } ],
        "type": "Patient"
      } ],
      "content": [ {
        "contentType": "text/cql",
        "data": ""
      }, {
        "contentType": "application/elm+xml",
        "data": ""
      } ]
    },
    "request": {
      "method": "PUT",
      "url": "Library/HelloWorldPatientView"
    }
  }, {
    "resource": {
      "resourceType": "Library",
      "id": "FHIR-ModelInfo",
      "text": {
        "status": "extensions",
        "div": "<div xmlns=\"http://www.w3.org/1999/xhtml\">\r\n    <table class=\"grid dict\">\r\n        \r\n        <tr>\r\n            <th scope=\"row\"><b>Id: </b></th>\r\n            <td style=\"padding-left: 25px;\">FHIR-ModelInfo</td>\r\n        </tr>\r\n        \r\n        \r\n        <tr>\r\n            <th scope=\"row\"><b>Url: </b></th>\r\n            <td style=\"padding-left: 25px;\">http://hl7.org/fhir/Library/FHIR-ModelInfo</td>\r\n        </tr>\r\n        \r\n        \r\n        <tr>\r\n            <th scope=\"row\"><b>Version: </b></th>\r\n            <td style=\"padding-left: 25px;\">4.0.1</td>\r\n        </tr>\r\n        \r\n        \r\n        <tr>\r\n            <th scope=\"row\"><b>Identifier: </b></th>\r\n            <td style=\"padding-left: 25px;\">\r\n                \r\n                \r\n                <p style=\"margin-bottom: 5px;\">\r\n                    <b>value: </b> <span>FHIR</span>\r\n                </p>\r\n                \r\n            </td>\r\n        </tr>\r\n        \r\n        \r\n        <tr>\r\n            <th scope=\"row\"><b>Name: </b></th>\r\n            <td style=\"padding-left: 25px;\">FHIR</td>\r\n        </tr>\r\n        \r\n        \r\n        <tr>\r\n            <th scope=\"row\"><b>Title: </b></th>\r\n            <td style=\"padding-left: 25px;\">FHIR Model Definition</td>\r\n        </tr>\r\n        \r\n        \r\n        \r\n        <tr>\r\n            <th scope=\"row\"><b>Status: </b></th>\r\n            <td style=\"padding-left: 25px;\">active</td>\r\n        </tr>\r\n        \r\n        \r\n        \r\n        <tr>\r\n            <th scope=\"row\"><b>Type: </b></th>\r\n            <td style=\"padding-left: 25px;\">\r\n                \r\n                    \r\n                        \r\n                        <p style=\"margin-bottom: 5px;\">\r\n                            <b>system: </b> <span>http://terminology.hl7.org/CodeSystem/library-type</span>\r\n                        </p>\r\n                        \r\n                        \r\n                        <p style=\"margin-bottom: 5px;\">\r\n                            <b>code: </b> <span>model-definition</span>\r\n                        </p>\r\n                        \r\n                        \r\n                    \r\n                \r\n                \r\n            </td>\r\n        </tr>\r\n        \r\n        \r\n        \r\n        <tr>\r\n            <th scope=\"row\"><b>Date: </b></th>\r\n            <td style=\"padding-left: 25px;\">2019-08-08</td>\r\n        </tr>\r\n        \r\n        \r\n        <tr>\r\n            <th scope=\"row\"><b>Publisher: </b></th>\r\n            <td style=\"padding-left: 25px;\">Health Level 7 International - Clinical Quality Information Work Group</td>\r\n        </tr>\r\n        \r\n        \r\n        <tr>\r\n            <th scope=\"row\"><b>Description: </b></th>\r\n            <td style=\"padding-left: 25px;\">Model definition for the FHIR R4 (v4.0.1) Model</td>\r\n        </tr>\r\n        \r\n        \r\n        \r\n        <tr>\r\n            <th scope=\"row\"><b>Jurisdiction: </b></th>\r\n            <td style=\"padding-left: 25px;\">US</td>\r\n        </tr>\r\n        \r\n        \r\n        \r\n        \r\n        \r\n        <tr>\r\n            <th scope=\"row\"><b>Approval Date: </b></th>\r\n            <td style=\"padding-left: 25px;\">2019-08-08</td>\r\n        </tr>\r\n        \r\n        \r\n        <tr>\r\n            <th scope=\"row\"><b>Last Review Date: </b></th>\r\n            <td style=\"padding-left: 25px;\">2020-06-19</td>\r\n        </tr>\r\n        \r\n        \r\n        \r\n        \r\n        \r\n        \r\n        \r\n        \r\n        <tr>\r\n          <table>\r\n            <tr><th><b>Content: </b> application/xml</th></tr>\r\n            <tr><td><pre><code>Encoded data ( characters)</code></pre></td></tr>\r\n          </table>\r\n        </tr>\r\n        \r\n        \r\n    </table>\r\n</div>"
      },
      "extension": [ {
        "url": "http://hl7.org/fhir/us/cqfmeasures/StructureDefinition/cqfm-softwaresystem",
        "valueReference": {
          "reference": "cqf-tooling"
        }
      } ],
      "url": "http://hl7.org/fhir/Library/FHIR-ModelInfo",
      "identifier": [ {
        "use": "official",
        "system": "http://example.org/fhir/cqi/ecqm/Library/Identifier",
        "value": "FHIR"
      } ],
      "version": "4.0.1",
      "name": "FHIR",
      "title": "FHIR Model Definition",
      "status": "active",
      "type": {
        "coding": [ {
          "system": "http://terminology.hl7.org/CodeSystem/library-type",
          "code": "model-definition"
        } ]
      },
      "date": "2019-08-08",
      "publisher": "Health Level 7 International - Clinical Quality Information Work Group",
      "description": "Model definition for the FHIR R4 (v4.0.1) Model",
      "approvalDate": "2019-08-08",
      "lastReviewDate": "2020-06-19",
      "jurisdiction": [ {
        "coding": [ {
          "system": "urn:iso:std:iso:3166",
          "code": "US",
          "display": "United States of America"
        } ]
      } ],
      "contact": [ {
        "telecom": [ {
          "system": "url",
          "value": "http://www.hl7.org/Special/committees/cqi/index.cfm"
        } ]
      } ],
      "content": [ {
        "contentType": "application/xml",
        "url": "https://github.com/cqframework/clinical_quality_language/blob/master/Src/java/quick/src/main/resources/org/hl7/fhir/fhir-modelinfo-4.0.1.xml"
      } ]
    },
    "request": {
      "method": "PUT",
      "url": "Library/FHIR-ModelInfo"
    }
  }, {
    "resource": {
      "resourceType": "PlanDefinition",
      "id": "hello-world-patient-view",
      "url": "http://fhir.org/guides/cdc/opioid-cds/PlanDefinition/hello-world-patient-view",
      "identifier": [ {
        "use": "official",
        "value": "helloworld-patient-view-sample"
      } ],
      "version": "1.0.0",
      "name": "HelloWorldPatientView",
      "title": "Hello World (patient-view)",
      "type": {
        "coding": [ {
          "system": "http://hl7.org/fhir/plan-definition-type",
          "code": "eca-rule",
          "display": "ECA Rule"
        } ]
      },
      "status": "draft",
      "date": "2021-05-26T00:00:00-08:00",
      "publisher": "Alphora",
      "description": "This PlanDefinition defines a simple Hello World recommendation that triggers on patient-view.",
      "purpose": "The purpose of this is to test the system to make sure we have complete end-to-end functionality",
      "usage": "This is to be used in conjunction with a patient-facing FHIR application.",
      "useContext": [ {
        "code": {
          "system": "http://hl7.org/fhir/usage-context-type",
          "version": "4.0.1",
          "code": "focus",
          "display": "Clinical Focus"
        }
      } ],
      "jurisdiction": [ {
        "coding": [ {
          "system": "http://hl7.org/fhir/ValueSet/iso3166-1-3",
          "version": "4.0.1",
          "code": "USA",
          "display": "United States of America"
        } ]
      } ],
      "library": [ {
        "reference": "http://fhir.org/guides/cdc/opioid-cds/Library/HelloWorldPatientView"
      } ],
      "action": [ {
        "label": "Hello World!",
        "title": "Hello  World!",
        "description": "A simple Hello World (patient-view) recommendation",
        "triggerDefinition": [ {
          "type": "named-event",
          "eventName": "patient-view"
        } ],
        "condition": [ {
          "kind": "start",
          "description": "Whether or not a Hello World! card should be returned",
          "language": "text/cql",
          "expression": "Main Action Condition Expression Is True"
        } ],
        "type": {
          "system": "http://terminology.hl7.org/CodeSystem/action-type",
          "code": "create",
          "display": "Create"
        },
        "selectionBehavior": "any",
        "dynamicValue": [ {
          "path": "action.title",
          "expression": "Get Title"
        }, {
          "path": "action.description",
          "expression": "Get Description"
        }, {
          "path": "activity.extension",
          "expression": "Get Indicator"
        } ]
      } ]
    },
    "request": {
      "method": "PUT",
      "url": "PlanDefinition/hello-world-patient-view"
    }
  }, {
    "resource": {
      "resourceType": "Library",
      "id": "FHIRHelpers",
      "text": {
        "status": "generated",
        "div": "<div xmlns=\"http://www.w3.org/1999/xhtml\"><table class=\"grid dict\"><tr><th scope=\"row\"><b>Id: </b></th><td style=\"padding-left: 25px; padding-right: 25px;\">library-FHIRHelpers</td></tr><tr><th scope=\"row\"><b>Type: </b></th><td style=\"padding-right: 25px;\"> Logic Library </td></tr><tr><th scope=\"row\"><b>Status: </b></th><td style=\"padding-left: 25px; padding-right: 25px;\">active</td></tr><tr style=\"vertical-align: top;\"><th scope=\"row\"><b>Content: </b></th><td style=\"padding-left: 25px; padding-right: 25px;\"><b>type: </b><span>text/cql</span></td></tr><tr><td colspan=\"2\" style=\"padding-left: 25px; padding-right: 25px;\"><pre><code class=\"language-cql\">library FHIRHelpers version '3.0.0'\n\nusing FHIR version '3.0.0'\n\ndefine function ToInterval(period FHIR.Period):\n    if period is null then\n        null\n    else\n        Interval[period.&quot;start&quot;.value, period.&quot;end&quot;.value]\n\ndefine function ToQuantity(quantity FHIR.Quantity):\n    if quantity is null then\n        null\n    else\n        System.Quantity { value: quantity.value.value, unit: quantity.unit.value }\n\ndefine function ToInterval(range FHIR.Range):\n    if range is null then\n        null\n    else\n        Interval[ToQuantity(range.low), ToQuantity(range.high)]\n\ndefine function ToCode(coding FHIR.Coding):\n    if coding is null then\n        null\n    else\n        System.Code {\n          code: coding.code.value,\n          system: coding.system.value,\n          version: coding.version.value,\n          display: coding.display.value\n        }\n\ndefine function ToConcept(concept FHIR.CodeableConcept):\n    if concept is null then\n         null\n    else\n        System.Concept {\n            codes: concept.coding C return ToCode(C),\n            display: concept.text.value\n        }\n\ndefine function ToString(value FHIR.uuid): value.value\ndefine function ToString(value FHIR.TestScriptRequestMethodCode): value.value\ndefine function ToString(value FHIR.ProvenanceEntityRole): value.value\ndefine function ToString(value FHIR.UnitsOfTime): value.value\ndefine function ToString(value FHIR.AddressType): value.value\ndefine function ToString(value FHIR.AllergyIntoleranceCategory): value.value\ndefine function ToString(value FHIR.SpecimenStatus): value.value\ndefine function ToString(value FHIR.RestfulCapabilityMode): value.value\ndefine function ToString(value FHIR.DetectedIssueSeverity): value.value\ndefine function ToString(value FHIR.IssueSeverity): value.value\ndefine function ToString(value FHIR.CareTeamStatus): value.value\ndefine function ToString(value FHIR.DataElementStringency): value.value\ndefine function ToString(value FHIR.VisionEyes): value.value\ndefine function ToString(value FHIR.EncounterStatus): value.value\ndefine function ToString(value FHIR.StructureDefinitionKind): value.value\ndefine function ToString(value FHIR.PublicationStatus): value.value\ndefine function ToString(value FHIR.ConsentDataMeaning): value.value\ndefine function ToString(value FHIR.StructureMapSourceListMode): value.value\ndefine function ToString(value FHIR.RequestStatus): value.value\ndefine function ToString(value FHIR.QuestionnaireResponseStatus): value.value\ndefine function ToString(value FHIR.SearchComparator): value.value\ndefine function ToString(value FHIR.ChargeItemStatus): value.value\ndefine function ToString(value FHIR.ActionParticipantType): value.value\ndefine function ToString(value FHIR.AllergyIntoleranceType): value.value\ndefine function ToString(value FHIR.DocumentRelationshipType): value.value\ndefine function ToString(value FHIR.AllergyIntoleranceClinicalStatus): value.value\ndefine function ToString(value FHIR.CarePlanActivityStatus): value.value\ndefine function ToString(value FHIR.ActionList): value.value\ndefine function ToString(value FHIR.ParticipationStatus): value.value\ndefine function ToString(value FHIR.TestReportResult): value.value\ndefine function ToString(value FHIR.ConceptMapGroupUnmappedMode): value.value\ndefine function ToDateTime(value FHIR.instant): value.value\ndefine function ToDateTime(value FHIR.dateTime): value.value\ndefine function ToDate(value FHIR.date): value.value\ndefine function ToString(value FHIR.DocumentMode): value.value\ndefine function ToString(value FHIR.AssertionOperatorType): value.value\ndefine function ToString(value FHIR.DaysOfWeek): value.value\ndefine function ToString(value FHIR.IssueType): value.value\ndefine function ToString(value FHIR.ContentType): value.value\ndefine function ToString(value FHIR.StructureMapContextType): value.value\ndefine function ToString(value FHIR.FamilyHistoryStatus): value.value\ndefine function ToInteger(value FHIR.positiveInt): value.value\ndefine function ToString(value FHIR.ClinicalImpressionStatus): value.value\ndefine function ToString(value FHIR.AssertionResponseTypes): value.value\ndefine function ToString(value FHIR.RequestIntent): value.value\ndefine function ToString(value FHIR.NarrativeStatus): value.value\ndefine function ToString(value FHIR.MeasmntPrinciple): value.value\ndefine function ToString(value FHIR.ConsentExceptType): value.value\ndefine function ToString(value FHIR.string): value.value\ndefine function ToString(value FHIR.ActionRequiredBehavior): value.value\ndefine function ToString(value FHIR.EndpointStatus): value.value\ndefine function ToString(value FHIR.GuidePageKind): value.value\ndefine function ToString(value FHIR.GuideDependencyType): value.value\ndefine function ToString(value FHIR.ResourceVersionPolicy): value.value\ndefine function ToString(value FHIR.MedicationRequestStatus): value.value\ndefine function ToString(value FHIR.MedicationAdministrationStatus): value.value\ndefine function ToString(value FHIR.ActionCardinalityBehavior): value.value\ndefine function ToString(value FHIR.MedicationRequestIntent): value.value\ndefine function ToString(value FHIR.NamingSystemIdentifierType): value.value\ndefine function ToString(value FHIR.ImmunizationStatusCodes): value.value\ndefine function ToString(value FHIR.AccountStatus): value.value\ndefine function ToString(value FHIR.MedicationDispenseStatus): value.value\ndefine function ToString(value FHIR.ConfidentialityClassification): value.value\ndefine function ToString(value FHIR.IdentifierUse): value.value\ndefine function ToString(value FHIR.DigitalMediaType): value.value\ndefine function ToString(value FHIR.StructureMapTargetListMode): value.value\ndefine function ToString(value FHIR.TestReportParticipantType): value.value\ndefine function ToString(value FHIR.BindingStrength): value.value\ndefine function ToString(value FHIR.RequestPriority): value.value\ndefine function ToString(value FHIR.ParticipantRequired): value.value\ndefine function ToString(value FHIR.DiscriminatorType): value.value\ndefine function ToString(value FHIR.XPathUsageType): value.value\ndefine function ToString(value FHIR.StructureMapInputMode): value.value\ndefine function ToString(value FHIR.InstanceAvailability): value.value\ndefine function ToString(value FHIR.id): value.value\ndefine function ToString(value FHIR.LinkageType): value.value\ndefine function ToString(value FHIR.ReferenceHandlingPolicy): value.value\ndefine function ToString(value FHIR.MedicationStatus): value.value\ndefine function ToString(value FHIR.FilterOperator): value.value\ndefine function ToString(value FHIR.NamingSystemType): value.value\ndefine function ToString(value FHIR.ResearchStudyStatus): value.value\ndefine function ToString(value FHIR.ExtensionContext): value.value\ndefine function ToString(value FHIR.FHIRDefinedType): value.value\ndefine function ToString(value FHIR.AuditEventOutcome): value.value\ndefine function ToString(value FHIR.ActionRelationshipType): value.value\ndefine function ToString(value FHIR.ConstraintSeverity): value.value\ndefine function ToString(value FHIR.EventCapabilityMode): value.value\ndefine function ToString(value FHIR.ContractResourceStatusCodes): value.value\ndefine function ToString(value FHIR.ResearchSubjectStatus): value.value\ndefine function ToString(value FHIR.UDIEntryType): value.value\ndefine function ToString(value FHIR.DeviceMetricCategory): value.value\ndefine function ToString(value FHIR.TestReportActionResult): value.value\ndefine function ToString(value FHIR.StructureMapTransform): value.value\ndefine function ToString(value FHIR.ResponseType): value.value\ndefine function ToDecimal(value FHIR.decimal): value.value\ndefine function ToString(value FHIR.AggregationMode): value.value\ndefine function ToString(value FHIR.CapabilityStatementKind): value.value\ndefine function ToString(value FHIR.AllergyIntoleranceVerificationStatus): value.value\ndefine function ToString(value FHIR.EventTiming): value.value\ndefine function ToString(value FHIR.GoalStatus): value.value\ndefine function ToString(value FHIR.SearchParamType): value.value\ndefine function ToString(value FHIR.SystemRestfulInteraction): value.value\ndefine function ToString(value FHIR.ActionGroupingBehavior): value.value\ndefine function ToString(value FHIR.StructureMapModelMode): value.value\ndefine function ToString(value FHIR.TaskStatus): value.value\ndefine function ToString(value FHIR.AdverseEventCausality): value.value\ndefine function ToString(value FHIR.SubscriptionChannelType): value.value\ndefine function ToString(value FHIR.GraphCompartmentRule): value.value\ndefine function ToString(value FHIR.AssertionDirectionType): value.value\ndefine function ToString(value FHIR.CarePlanIntent): value.value\ndefine function ToString(value FHIR.SlicingRules): value.value\ndefine function ToString(value FHIR.ExplanationOfBenefitStatus): value.value\ndefine function ToString(value FHIR.ConsentState): value.value\ndefine function ToString(value FHIR.AdverseEventCategory): value.value\ndefine function ToString(value FHIR.LinkType): value.value\ndefine function ToString(value FHIR.AllergyIntoleranceCriticality): value.value\ndefine function ToString(value FHIR.MedicationRequestPriority): value.value\ndefine function ToString(value FHIR.ConceptMapEquivalence): value.value\ndefine function ToString(value FHIR.FHIRAllTypes): value.value\ndefine function ToString(value FHIR.PropertyRepresentation): value.value\ndefine function ToString(value FHIR.AuditEventAction): value.value\ndefine function ToString(value FHIR.TriggerType): value.value\ndefine function ToString(value FHIR.SearchModifierCode): value.value\ndefine function ToString(value FHIR.CompositionStatus): value.value\ndefine function ToString(value FHIR.AppointmentStatus): value.value\ndefine function ToString(value FHIR.MessageSignificanceCategory): value.value\ndefine function ToString(value FHIR.EventStatus): value.value\ndefine function ToString(value FHIR.OperationParameterUse): value.value\ndefine function ToString(value FHIR.ListMode): value.value\ndefine function ToString(value FHIR.ActionConditionKind): value.value\ndefine function ToString(value FHIR.ObservationStatus): value.value\ndefine function ToString(value FHIR.qualityType): value.value\ndefine function ToString(value FHIR.AdministrativeGender): value.value\ndefine function ToString(value FHIR.ResourceType): value.value\ndefine function ToString(value FHIR.QuestionnaireItemType): value.value\ndefine function ToBoolean(value FHIR.boolean): value.value\ndefine function ToString(value FHIR.StructureMapGroupTypeMode): value.value\ndefine function ToString(value FHIR.DeviceMetricCalibrationType): value.value\ndefine function ToString(value FHIR.code): value.value\ndefine function ToString(value FHIR.SupplyRequestStatus): value.value\ndefine function ToString(value FHIR.ActionSelectionBehavior): value.value\ndefine function ToString(value FHIR.EncounterLocationStatus): value.value\ndefine function ToString(value FHIR.SupplyDeliveryStatus): value.value\ndefine function ToString(value FHIR.DiagnosticReportStatus): value.value\ndefine function ToString(value FHIR.FlagStatus): value.value\ndefine function ToString(value FHIR.CarePlanStatus): value.value\ndefine function ToString(value FHIR.ConditionClinicalStatusCodes): value.value\ndefine function ToString(value FHIR.ListStatus): value.value\ndefine function Tobase64Binary(value FHIR.base64Binary): value.value\ndefine function ToString(value FHIR.DeviceUseStatementStatus): value.value\ndefine function ToString(value FHIR.AuditEventAgentNetworkType): value.value\ndefine function ToString(value FHIR.AddressUse): value.value\ndefine function ToString(value FHIR.ConditionalDeleteStatus): value.value\ndefine function ToString(value FHIR.ContactPointUse): value.value\ndefine function ToString(value FHIR.DeviceMetricOperationalStatus): value.value\ndefine function ToString(value FHIR.NutritionOrderStatus): value.value\ndefine function ToString(value FHIR.uri): value.value\ndefine function ToString(value FHIR.ContributorType): value.value\ndefine function ToString(value FHIR.ReferenceVersionRules): value.value\ndefine function ToString(value FHIR.Use): value.value\ndefine function ToString(value FHIR.IdentityAssuranceLevel): value.value\ndefine function ToString(value FHIR.MeasureReportStatus): value.value\ndefine function ToString(value FHIR.DeviceMetricColor): value.value\ndefine function ToString(value FHIR.SearchEntryMode): value.value\ndefine function ToTime(value FHIR.time): value.value\ndefine function ToString(value FHIR.ConditionalReadStatus): value.value\ndefine function ToString(value FHIR.ConditionVerificationStatus): value.value\ndefine function ToString(value FHIR.AllergyIntoleranceSeverity): value.value\ndefine function ToString(value FHIR.FinancialResourceStatusCodes): value.value\ndefine function ToString(value FHIR.OperationKind): value.value\ndefine function ToString(value FHIR.ObservationRelationshipType): value.value\ndefine function ToInteger(value FHIR.unsignedInt): value.value\ndefine function ToString(value FHIR.NameUse): value.value\ndefine function ToString(value FHIR.SubscriptionStatus): value.value\ndefine function ToString(value FHIR.DocumentReferenceStatus): value.value\ndefine function ToString(value FHIR.LocationMode): value.value\ndefine function ToInteger(value FHIR.integer): value.value\ndefine function ToString(value FHIR.repositoryType): value.value\ndefine function ToString(value FHIR.LocationStatus): value.value\ndefine function ToString(value FHIR.FHIRSubstanceStatus): value.value\ndefine function ToString(value FHIR.UnknownContentCode): value.value\ndefine function ToString(value FHIR.NoteType): value.value\ndefine function ToString(value FHIR.TestReportStatus): value.value\ndefine function ToString(value FHIR.HTTPVerb): value.value\ndefine function ToString(value FHIR.CodeSystemContentMode): value.value\ndefine function ToString(value FHIR.EpisodeOfCareStatus): value.value\ndefine function ToString(value FHIR.RemittanceOutcome): value.value\ndefine function ToString(value FHIR.FHIRDeviceStatus): value.value\ndefine function ToString(value FHIR.ContactPointSystem): value.value\ndefine function ToString(value FHIR.SlotStatus): value.value\ndefine function ToString(value FHIR.PropertyType): value.value\ndefine function ToString(value FHIR.markdown): value.value\ndefine function ToString(value FHIR.TypeDerivationRule): value.value\ndefine function ToString(value FHIR.MedicationStatementStatus): value.value\ndefine function ToString(value FHIR.GuidanceResponseStatus): value.value\ndefine function ToString(value FHIR.QuantityComparator): value.value\ndefine function ToString(value FHIR.RelatedArtifactType): value.value\ndefine function ToString(value FHIR.oid): value.value\ndefine function ToString(value FHIR.MeasureReportType): value.value\ndefine function ToString(value FHIR.ActionPrecheckBehavior): value.value\ndefine function ToString(value FHIR.SampledDataDataType): value.value\ndefine function ToString(value FHIR.MedicationStatementTaken): value.value\ndefine function ToString(value FHIR.CompartmentType): value.value\ndefine function ToString(value FHIR.CompositionAttestationMode): value.value\ndefine function ToString(value FHIR.DeviceMetricCalibrationState): value.value\ndefine function ToString(value FHIR.GroupType): value.value\ndefine function ToString(value FHIR.TypeRestfulInteraction): value.value\ndefine function ToString(value FHIR.CodeSystemHierarchyMeaning): value.value\ndefine function ToString(value FHIR.VisionBase): value.value\ndefine function ToString(value FHIR.BundleType): value.value\ndefine function ToString(value FHIR.SystemVersionProcessingMode): value.value\n</code></pre>\n                    \n                    \n                </td>\n            </tr>\n        \n    </table>\n</div>"
      },
      "extension": [ {
        "url": "http://hl7.org/fhir/us/cqfmeasures/StructureDefinition/cqfm-softwaresystem",
        "valueReference": {
          "reference": "cqf-tooling"
        }
      } ],
      "url": "http://hl7.org/fhir/Library/FHIRHelpers",
      "identifier": [ {
        "use": "official",
        "system": "http://example.org/fhir/cqi/ecqm/Library/Identifier",
        "value": "FHIRHelpers"
      } ],
      "version": "3.0.0",
      "name": "FHIRHelpers",
      "title": "Library - FHIRHelpers",
      "status": "active",
      "experimental": true,
      "type": {
        "coding": [ {
          "system": "http://terminology.hl7.org/CodeSystem/library-type",
          "code": "logic-library"
        } ]
      },
      "date": "2019-09-03",
      "publisher": "Health Level 7 International - Clinical Quality Information Work Group",
      "description": "This library is used as an example in the FHIR Quality Measure Implementation Guide",
      "approvalDate": "2019-08-03",
      "lastReviewDate": "2019-08-03",
      "contact": [ {
        "telecom": [ {
          "system": "url",
          "value": "http://www.hl7.org/Special/committees/cqi/index.cfm"
        } ]
      } ],
      "relatedArtifact": [ {
        "type": "depends-on",
        "display": "FHIR model information",
        "resource": {
          "reference": "Library/FHIR-ModelInfo"
        }
      } ],
      "content": [ {
        "contentType": "text/cql",
        "data": ""
      }, {
        "contentType": "application/elm+xml",
        "data": ""
      } ]
    },
    "request": {
      "method": "PUT",
      "url": "Library/FHIRHelpers"
    }
  } ]
}