{
	"resourceType": "Bundle",
	"type": "transaction",
	"entry": [
		{
			"resource": {"resourceType":"Patient","id":"eOTWcfBK0B.0nnWNAZ-rrxA3","extension":[{"url":"http://open.epic.com/FHIR/StructureDefinition/extension/legal-sex","valueCodeableConcept":{"coding":[{"system":"urn:oid:1.2.840.114350.1.13.301.3.7.10.698084.130.657370.276","code":"female","display":"female"}]}},{"url":"http://open.epic.com/FHIR/StructureDefinition/extension/sex-for-clinical-use","valueCodeableConcept":{"coding":[{"system":"urn:oid:1.2.840.114350.1.13.301.3.7.10.698084.130.657370.276","code":"female","display":"female"}]}},{"url":"http://hl7.org/fhir/us/core/StructureDefinition/us-core-race","extension":[{"url":"ombCategory","valueCoding":{"system":"http://terminology.hl7.org/CodeSystem/v3-NullFlavor","code":"UNK","display":"Unknown"}},{"url":"text","valueString":"Unknown"}]},{"url":"http://hl7.org/fhir/us/core/StructureDefinition/us-core-ethnicity","extension":[{"url":"text","valueString":"Unknown"}]},{"url":"http://hl7.org/fhir/us/core/StructureDefinition/us-core-sex","valueCode":"248152002"},{"url":"http://open.epic.com/FHIR/StructureDefinition/extension/calculated-pronouns-to-use-for-text","valueCodeableConcept":{"coding":[{"system":"http://loinc.org","code":"LA29519-8","display":"she/her/her/hers/herself"}]}}],"identifier":[{"use":"usual","type":{"text":"CEID"},"system":"urn:oid:1.2.840.114350.1.13.301.3.7.3.688884.100","value":"YNHCCF36XKNJ39P"},{"use":"usual","type":{"text":"EPI"},"system":"urn:oid:1.2.840.114350.1.13.301.3.7.5.737384.0","value":"E4557"},{"use":"usual","type":{"text":"EPICMRN"},"system":"urn:oid:1.2.5.8.2.7","value":"MR9037909"},{"use":"usual","type":{"text":"EXTERNAL"},"system":"urn:oid:1.2.840.114350.1.13.301.3.7.2.698084","value":"Z7395"},{"use":"usual","type":{"text":"FHIR"},"system":"http://open.epic.com/FHIR/StructureDefinition/patient-dstu2-fhir-id","value":"TtiI8kdTUjkQZSzjJaGdGvUL9oxFLAnSZe2qqTns11WcB"},{"use":"usual","type":{"text":"FHIR STU3"},"system":"http://open.epic.com/FHIR/StructureDefinition/patient-fhir-id","value":"eOTWcfBK0B.0nnWNAZ-rrxA3"},{"use":"usual","type":{"text":"INTERNAL"},"system":"urn:oid:1.2.840.114350.1.13.301.3.7.2.698084","value":"     Z7395"}],"active":true,"name":[{"use":"official","text":"NegAmbNine Zzzunexp","family":"Zzzunexp","given":["NegAmbNine"]},{"use":"usual","text":"NegAmbNine Zzzunexp","family":"Zzzunexp","given":["NegAmbNine"]}],"gender":"female","birthDate":"1991-07-11","deceasedBoolean":false,"managingOrganization":{"reference":"Organization/etRSC-eC.BwU.WMgwAwv5ng3","display":"Yale New Haven Health System and Yale Medicine"}},
			"request": {
				"method": "PUT",
				"url": "Patient/eOTWcfBK0B.0nnWNAZ-rrxA3"
			}
		},
		{
			"resource": {"resourceType":"MedicationRequest","id":"e5KdemmxY.59cPs8ZFPMuEwZdRvz9WSQMNzC0MXxuROo3","identifier":[{"use":"usual","system":"urn:oid:1.2.840.114350.1.13.301.3.7.2.798268","value":"30737611"}],"status":"stopped","intent":"order","category":[{"coding":[{"system":"http://terminology.hl7.org/CodeSystem/medicationrequest-category","code":"community","display":"Community"}],"text":"Community"}],"medicationReference":{"reference":"Medication/eq8BJ1DaJt1FcB2EI6cC3s06kz.ZVkrBz6CO92hTChDilIMQIxL2dlEzyqkz.UvtloYBIPHkTgQlClF5VIuyqGM8CS0oz.y3K6aoSzRe-Fc83","display":"oxyCODONE (OxyCONTIN) 12 hr tablet"},"subject":{"reference":"Patient/eOTWcfBK0B.0nnWNAZ-rrxA3","display":"Zzzunexp, NegAmbNine"},"encounter":{"reference":"Encounter/eJLoNtVFzxi-c-g3dv7ZzZQ3","identifier":{"use":"usual","system":"urn:oid:1.2.840.114350.1.13.301.3.7.3.698084.8","value":"80437322"},"display":"Office Visit"},"authoredOn":"2024-07-18","requester":{"reference":"Practitioner/edVgNmZO8PsofzicgHOR39A3","type":"Practitioner","display":"Physician Family Medicine, MD"},"recorder":{"reference":"Practitioner/edVgNmZO8PsofzicgHOR39A3","type":"Practitioner","display":"Physician Family Medicine, MD"},"reasonCode":[{"coding":[{"system":"http://snomed.info/sct","code":"161891005","display":"Backache (finding)"},{"system":"http://hl7.org/fhir/sid/icd-9-cm","code":"724.5","display":"Back pain, unspecified back location, unspecified back pain laterality, unspecified chronicity"},{"system":"http://hl7.org/fhir/sid/icd-10-cm","code":"M54.9","display":"Back pain, unspecified back location, unspecified back pain laterality, unspecified chronicity"}],"text":"Back pain, unspecified back location, unspecified back pain laterality, unspecified chronicity"}],"courseOfTherapyType":{"coding":[{"system":"http://terminology.hl7.org/CodeSystem/medicationrequest-course-of-therapy","code":"acute","display":"Short course (acute) therapy"}],"text":"Short course (acute) therapy"},"dosageInstruction":[{"text":"Take 1 tablet (80 mg total) by mouth every 12 (twelve) hours., Starting Thu 7/18/2024, Until Thu 7/18/2024, Print","patientInstruction":"Take 1 tablet (80 mg total) by mouth every 12 (twelve) hours.","timing":{"repeat":{"boundsPeriod":{"start":"2024-07-18","end":"2024-07-18"},"count":60,"frequency":1,"period":12,"periodUnit":"h"},"code":{"text":"every 12 (twelve) hours"}},"asNeededBoolean":false,"route":{"coding":[{"system":"http://snomed.info/sct","code":"26643006","display":"Oral route (qualifier value)"},{"system":"urn:oid:1.2.840.114350.1.13.301.3.7.4.798268.7025","code":"15","display":"Oral"}],"text":"Oral"},"method":{"coding":[{"system":"http://snomed.info/sct","code":"419652001","display":"Take"}],"text":"Take"},"doseAndRate":[{"type":{"coding":[{"system":"http://epic.com/CodeSystem/dose-rate-type","code":"calculated","display":"calculated"}],"text":"calculated"},"doseQuantity":{"value":80,"unit":"mg","system":"http://unitsofmeasure.org","code":"mg"}},{"type":{"coding":[{"system":"http://epic.com/CodeSystem/dose-rate-type","code":"admin-amount","display":"admin-amount"}],"text":"admin-amount"},"doseQuantity":{"value":1,"unit":"tablet","system":"http://unitsofmeasure.org","code":"{tbl}"}},{"type":{"coding":[{"system":"http://epic.com/CodeSystem/dose-rate-type","code":"ordered","display":"ordered"}],"text":"ordered"},"doseQuantity":{"value":80,"unit":"mg","system":"http://unitsofmeasure.org","code":"mg"}}]}],"dispenseRequest":{"validityPeriod":{"start":"2024-07-18","end":"2024-07-18"},"numberOfRepeatsAllowed":0,"quantity":{"value":60,"unit":"tablet"},"expectedSupplyDuration":{"value":30,"unit":"Day","system":"http://unitsofmeasure.org","code":"d"}}},
			"request": {
				"method": "PUT",
				"url": "MedicationRequest/e5KdemmxY.59cPs8ZFPMuEwZdRvz9WSQMNzC0MXxuROo3"
			}
		},
		{
			"resource": {"resourceType":"MedicationRequest","id":"e63hDSz6D-6u6RqtMgs7zfwQow3jpmTjsMJzCgN0tw9s3","identifier":[{"use":"usual","system":"urn:oid:1.2.840.114350.1.13.301.3.7.2.798268","value":"30724637"}],"status":"active","intent":"order","category":[{"coding":[{"system":"http://terminology.hl7.org/CodeSystem/medicationrequest-category","code":"community","display":"Community"}],"text":"Community"}],"medicationReference":{"reference":"Medication/eNy319a1nGWQoorJUwAczCs7WJiBlOOTxJTAOXIjWm8KBNvOnIRTFdGRFvKqYU99GNAJKQ709NqJ0eJsI30tFSJj5qItidc9ewhwPhAvBTd43","display":"fentaNYL (DURAGESIC) patch"},"subject":{"reference":"Patient/eOTWcfBK0B.0nnWNAZ-rrxA3","display":"Zzzunexp, NegAmbNine"},"encounter":{"reference":"Encounter/eGSWczgsTXe4EPs7vdi5v2A3","identifier":{"use":"usual","system":"urn:oid:1.2.840.114350.1.13.301.3.7.3.698084.8","value":"80436649"},"display":"Office Visit"},"authoredOn":"2024-07-11","requester":{"reference":"Practitioner/edVgNmZO8PsofzicgHOR39A3","type":"Practitioner","display":"Physician Family Medicine, MD"},"recorder":{"reference":"Practitioner/edVgNmZO8PsofzicgHOR39A3","type":"Practitioner","display":"Physician Family Medicine, MD"},"reasonCode":[{"coding":[{"system":"http://snomed.info/sct","code":"161891005","display":"Backache (finding)"},{"system":"http://hl7.org/fhir/sid/icd-9-cm","code":"724.5","display":"Back pain, unspecified back location, unspecified back pain laterality, unspecified chronicity"},{"system":"http://hl7.org/fhir/sid/icd-10-cm","code":"M54.9","display":"Back pain, unspecified back location, unspecified back pain laterality, unspecified chronicity"}],"text":"Back pain, unspecified back location, unspecified back pain laterality, unspecified chronicity"}],"courseOfTherapyType":{"coding":[{"system":"http://terminology.hl7.org/CodeSystem/medicationrequest-course-of-therapy","code":"acute","display":"Short course (acute) therapy"}],"text":"Short course (acute) therapy"},"dosageInstruction":[{"text":"Place 1 patch onto the skin every third day., Starting Thu 7/11/2024, Until Tue 8/20/2024, Print","patientInstruction":"Place 1 patch onto the skin every third day.","timing":{"repeat":{"boundsPeriod":{"start":"2024-07-11"},"count":14,"frequency":1,"period":72,"periodUnit":"h"},"code":{"text":"every 72 hours"}},"asNeededBoolean":false,"route":{"coding":[{"system":"http://snomed.info/sct","code":"45890007","display":"Transdermal route (qualifier value)"},{"system":"urn:oid:1.2.840.114350.1.13.301.3.7.4.798268.7025","code":"20","display":"Transdermal"}],"text":"Transdermal"},"doseAndRate":[{"type":{"coding":[{"system":"http://epic.com/CodeSystem/dose-rate-type","code":"calculated","display":"calculated"}],"text":"calculated"},"doseQuantity":{"value":1,"unit":"patch","system":"http://unitsofmeasure.org","code":"{patch}"}},{"type":{"coding":[{"system":"http://epic.com/CodeSystem/dose-rate-type","code":"admin-amount","display":"admin-amount"}],"text":"admin-amount"},"doseQuantity":{"value":1,"unit":"patch","system":"http://unitsofmeasure.org","code":"{patch}"}},{"type":{"coding":[{"system":"http://epic.com/CodeSystem/dose-rate-type","code":"ordered","display":"ordered"}],"text":"ordered"},"doseQuantity":{"value":1,"unit":"patch","system":"http://unitsofmeasure.org","code":"{patch}"}}]}],"dispenseRequest":{"validityPeriod":{"start":"2024-07-11"},"numberOfRepeatsAllowed":0,"quantity":{"value":13,"unit":"patch"},"expectedSupplyDuration":{"value":39,"unit":"Day","system":"http://unitsofmeasure.org","code":"d"}}},
			"request": {
				"method": "PUT",
				"url": "MedicationRequest/e63hDSz6D-6u6RqtMgs7zfwQow3jpmTjsMJzCgN0tw9s3"
			}
		},
		{
			"resource": {"resourceType":"MedicationRequest","id":"eHjjp396S9qJdaEj4QB44ETv0dUQtI25S8OodL0YHeVk3","identifier":[{"use":"usual","system":"urn:oid:1.2.840.114350.1.13.301.3.7.2.798268","value":"30737617"}],"status":"stopped","intent":"order","category":[{"coding":[{"system":"http://terminology.hl7.org/CodeSystem/medicationrequest-category","code":"community","display":"Community"}],"text":"Community"}],"medicationReference":{"reference":"Medication/eq8BJ1DaJt1FcB2EI6cC3s2OZ7zS9g4MXYn8iEbS15XYDjtETWNG6G.nj6yR1Vzal1q5QsFzlxf6B0z9IHElzCGLGLqNpCc6wOsI6uJrd8TM3","display":"oxyCODONE (OxyCONTIN) 12 hr tablet"},"subject":{"reference":"Patient/eOTWcfBK0B.0nnWNAZ-rrxA3","display":"Zzzunexp, NegAmbNine"},"encounter":{"reference":"Encounter/eJLoNtVFzxi-c-g3dv7ZzZQ3","identifier":{"use":"usual","system":"urn:oid:1.2.840.114350.1.13.301.3.7.3.698084.8","value":"80437322"},"display":"Office Visit"},"authoredOn":"2024-07-18","requester":{"reference":"Practitioner/edVgNmZO8PsofzicgHOR39A3","type":"Practitioner","display":"Physician Family Medicine, MD"},"recorder":{"reference":"Practitioner/edVgNmZO8PsofzicgHOR39A3","type":"Practitioner","display":"Physician Family Medicine, MD"},"reasonCode":[{"coding":[{"system":"http://snomed.info/sct","code":"161891005","display":"Backache (finding)"},{"system":"http://hl7.org/fhir/sid/icd-9-cm","code":"724.5","display":"Back pain, unspecified back location, unspecified back pain laterality, unspecified chronicity"},{"system":"http://hl7.org/fhir/sid/icd-10-cm","code":"M54.9","display":"Back pain, unspecified back location, unspecified back pain laterality, unspecified chronicity"}],"text":"Back pain, unspecified back location, unspecified back pain laterality, unspecified chronicity"}],"courseOfTherapyType":{"coding":[{"system":"http://terminology.hl7.org/CodeSystem/medicationrequest-course-of-therapy","code":"acute","display":"Short course (acute) therapy"}],"text":"Short course (acute) therapy"},"dosageInstruction":[{"text":"Take 1 tablet (80 mg total) by mouth every 12 (twelve) hours., Starting Thu 7/18/2024, Until Thu 7/18/2024, Print","patientInstruction":"Take 1 tablet (80 mg total) by mouth every 12 (twelve) hours.","timing":{"repeat":{"boundsPeriod":{"start":"2024-07-18","end":"2024-07-18"},"count":60,"frequency":1,"period":12,"periodUnit":"h"},"code":{"text":"every 12 (twelve) hours"}},"asNeededBoolean":false,"route":{"coding":[{"system":"http://snomed.info/sct","code":"26643006","display":"Oral route (qualifier value)"},{"system":"urn:oid:1.2.840.114350.1.13.301.3.7.4.798268.7025","code":"15","display":"Oral"}],"text":"Oral"},"method":{"coding":[{"system":"http://snomed.info/sct","code":"419652001","display":"Take"}],"text":"Take"},"doseAndRate":[{"type":{"coding":[{"system":"http://epic.com/CodeSystem/dose-rate-type","code":"calculated","display":"calculated"}],"text":"calculated"},"doseQuantity":{"value":80,"unit":"mg","system":"http://unitsofmeasure.org","code":"mg"}},{"type":{"coding":[{"system":"http://epic.com/CodeSystem/dose-rate-type","code":"admin-amount","display":"admin-amount"}],"text":"admin-amount"},"doseQuantity":{"value":1,"unit":"tablet","system":"http://unitsofmeasure.org","code":"{tbl}"}},{"type":{"coding":[{"system":"http://epic.com/CodeSystem/dose-rate-type","code":"ordered","display":"ordered"}],"text":"ordered"},"doseQuantity":{"value":80,"unit":"mg","system":"http://unitsofmeasure.org","code":"mg"}}]}],"dispenseRequest":{"validityPeriod":{"start":"2024-07-18","end":"2024-07-18"},"numberOfRepeatsAllowed":0,"quantity":{"value":60,"unit":"tablet"},"expectedSupplyDuration":{"value":30,"unit":"Day","system":"http://unitsofmeasure.org","code":"d"}}},
			"request": {
				"method": "PUT",
				"url": "MedicationRequest/eHjjp396S9qJdaEj4QB44ETv0dUQtI25S8OodL0YHeVk3"
			}
		},
		{
			"resource": {"resourceType":"MedicationRequest","id":"eX3j4oecgODlSejI3evai31Pn8GXXqs5.YvE.y96lpNk3","identifier":[{"use":"usual","system":"urn:oid:1.2.840.114350.1.13.301.3.7.2.798268","value":"30737616"}],"status":"stopped","intent":"order","category":[{"coding":[{"system":"http://terminology.hl7.org/CodeSystem/medicationrequest-category","code":"community","display":"Community"}],"text":"Community"}],"medicationReference":{"reference":"Medication/eq8BJ1DaJt1FcB2EI6cC3swpmaSmbtFS1ZO0o7WzCLeINlZN0Dy8ZWeSQ3RP33h5Si2OQB0lr0MSZC1kB-vQ8QU6TPKFwjm-tUipqBb7r0g03","display":"oxyCODONE (OxyCONTIN) 12 hr tablet"},"subject":{"reference":"Patient/eOTWcfBK0B.0nnWNAZ-rrxA3","display":"Zzzunexp, NegAmbNine"},"encounter":{"reference":"Encounter/eJLoNtVFzxi-c-g3dv7ZzZQ3","identifier":{"use":"usual","system":"urn:oid:1.2.840.114350.1.13.301.3.7.3.698084.8","value":"80437322"},"display":"Office Visit"},"authoredOn":"2024-07-18","requester":{"reference":"Practitioner/edVgNmZO8PsofzicgHOR39A3","type":"Practitioner","display":"Physician Family Medicine, MD"},"recorder":{"reference":"Practitioner/edVgNmZO8PsofzicgHOR39A3","type":"Practitioner","display":"Physician Family Medicine, MD"},"reasonCode":[{"coding":[{"system":"http://snomed.info/sct","code":"161891005","display":"Backache (finding)"},{"system":"http://hl7.org/fhir/sid/icd-9-cm","code":"724.5","display":"Back pain, unspecified back location, unspecified back pain laterality, unspecified chronicity"},{"system":"http://hl7.org/fhir/sid/icd-10-cm","code":"M54.9","display":"Back pain, unspecified back location, unspecified back pain laterality, unspecified chronicity"}],"text":"Back pain, unspecified back location, unspecified back pain laterality, unspecified chronicity"}],"courseOfTherapyType":{"coding":[{"system":"http://terminology.hl7.org/CodeSystem/medicationrequest-course-of-therapy","code":"acute","display":"Short course (acute) therapy"}],"text":"Short course (acute) therapy"},"dosageInstruction":[{"text":"Take 1 tablet (80 mg total) by mouth every 12 (twelve) hours., Starting Thu 7/18/2024, Until Thu 7/18/2024, Print","patientInstruction":"Take 1 tablet (80 mg total) by mouth every 12 (twelve) hours.","timing":{"repeat":{"boundsPeriod":{"start":"2024-07-18","end":"2024-07-18"},"count":60,"frequency":1,"period":12,"periodUnit":"h"},"code":{"text":"every 12 (twelve) hours"}},"asNeededBoolean":false,"route":{"coding":[{"system":"http://snomed.info/sct","code":"26643006","display":"Oral route (qualifier value)"},{"system":"urn:oid:1.2.840.114350.1.13.301.3.7.4.798268.7025","code":"15","display":"Oral"}],"text":"Oral"},"method":{"coding":[{"system":"http://snomed.info/sct","code":"419652001","display":"Take"}],"text":"Take"},"doseAndRate":[{"type":{"coding":[{"system":"http://epic.com/CodeSystem/dose-rate-type","code":"calculated","display":"calculated"}],"text":"calculated"},"doseQuantity":{"value":80,"unit":"mg","system":"http://unitsofmeasure.org","code":"mg"}},{"type":{"coding":[{"system":"http://epic.com/CodeSystem/dose-rate-type","code":"admin-amount","display":"admin-amount"}],"text":"admin-amount"},"doseQuantity":{"value":1,"unit":"tablet","system":"http://unitsofmeasure.org","code":"{tbl}"}},{"type":{"coding":[{"system":"http://epic.com/CodeSystem/dose-rate-type","code":"ordered","display":"ordered"}],"text":"ordered"},"doseQuantity":{"value":80,"unit":"mg","system":"http://unitsofmeasure.org","code":"mg"}}]}],"dispenseRequest":{"validityPeriod":{"start":"2024-07-18","end":"2024-07-18"},"numberOfRepeatsAllowed":0,"quantity":{"value":60,"unit":"tablet"},"expectedSupplyDuration":{"value":30,"unit":"Day","system":"http://unitsofmeasure.org","code":"d"}}},
			"request": {
				"method": "PUT",
				"url": "MedicationRequest/eX3j4oecgODlSejI3evai31Pn8GXXqs5.YvE.y96lpNk3"
			}
		},
		{
			"resource": {"resourceType":"MedicationRequest","id":"ed5lr-1vXUZ6K4uoUu-7eFvP0IdE1ZZo8W7LkmIwv8Jk3","identifier":[{"use":"usual","system":"urn:oid:1.2.840.114350.1.13.301.3.7.2.798268","value":"30733691"}],"status":"stopped","intent":"order","category":[{"coding":[{"system":"http://terminology.hl7.org/CodeSystem/medicationrequest-category","code":"community","display":"Community"}],"text":"Community"}],"medicationReference":{"reference":"Medication/eq8BJ1DaJt1FcB2EI6cC3s0y4iCq.lrvN.zQ8uy-82upa9VLsmncWyqvQwgGTqcDOTJ-NfyeuDONYmhIUC3E5l-ucKgBvFiRVn-9Yic-mUn43","display":"oxyCODONE (OxyCONTIN) 12 hr tablet"},"subject":{"reference":"Patient/eOTWcfBK0B.0nnWNAZ-rrxA3","display":"Zzzunexp, NegAmbNine"},"encounter":{"reference":"Encounter/eZLXBFAb8YLKl.BM2HCmdqg3","identifier":{"use":"usual","system":"urn:oid:1.2.840.114350.1.13.301.3.7.3.698084.8","value":"80437007"},"display":"Office Visit"},"authoredOn":"2024-07-16","requester":{"reference":"Practitioner/edVgNmZO8PsofzicgHOR39A3","type":"Practitioner","display":"Physician Family Medicine, MD"},"recorder":{"reference":"Practitioner/edVgNmZO8PsofzicgHOR39A3","type":"Practitioner","display":"Physician Family Medicine, MD"},"reasonCode":[{"coding":[{"system":"http://snomed.info/sct","code":"161891005","display":"Backache (finding)"},{"system":"http://hl7.org/fhir/sid/icd-9-cm","code":"724.5","display":"Back pain, unspecified back location, unspecified back pain laterality, unspecified chronicity"},{"system":"http://hl7.org/fhir/sid/icd-10-cm","code":"M54.9","display":"Back pain, unspecified back location, unspecified back pain laterality, unspecified chronicity"}],"text":"Back pain, unspecified back location, unspecified back pain laterality, unspecified chronicity"}],"courseOfTherapyType":{"coding":[{"system":"http://terminology.hl7.org/CodeSystem/medicationrequest-course-of-therapy","code":"acute","display":"Short course (acute) therapy"}],"text":"Short course (acute) therapy"},"dosageInstruction":[{"text":"Take 1 tablet (80 mg total) by mouth every 12 (twelve) hours., Starting Tue 7/16/2024, Until Thu 7/18/2024, Print","patientInstruction":"Take 1 tablet (80 mg total) by mouth every 12 (twelve) hours.","timing":{"repeat":{"boundsPeriod":{"start":"2024-07-16","end":"2024-07-18"},"count":60,"frequency":1,"period":12,"periodUnit":"h"},"code":{"text":"every 12 (twelve) hours"}},"asNeededBoolean":false,"route":{"coding":[{"system":"http://snomed.info/sct","code":"26643006","display":"Oral route (qualifier value)"},{"system":"urn:oid:1.2.840.114350.1.13.301.3.7.4.798268.7025","code":"15","display":"Oral"}],"text":"Oral"},"method":{"coding":[{"system":"http://snomed.info/sct","code":"419652001","display":"Take"}],"text":"Take"},"doseAndRate":[{"type":{"coding":[{"system":"http://epic.com/CodeSystem/dose-rate-type","code":"calculated","display":"calculated"}],"text":"calculated"},"doseQuantity":{"value":80,"unit":"mg","system":"http://unitsofmeasure.org","code":"mg"}},{"type":{"coding":[{"system":"http://epic.com/CodeSystem/dose-rate-type","code":"admin-amount","display":"admin-amount"}],"text":"admin-amount"},"doseQuantity":{"value":1,"unit":"tablet","system":"http://unitsofmeasure.org","code":"{tbl}"}},{"type":{"coding":[{"system":"http://epic.com/CodeSystem/dose-rate-type","code":"ordered","display":"ordered"}],"text":"ordered"},"doseQuantity":{"value":80,"unit":"mg","system":"http://unitsofmeasure.org","code":"mg"}}]}],"dispenseRequest":{"validityPeriod":{"start":"2024-07-16","end":"2024-07-18"},"numberOfRepeatsAllowed":0,"quantity":{"value":60,"unit":"tablet"},"expectedSupplyDuration":{"value":30,"unit":"Day","system":"http://unitsofmeasure.org","code":"d"}}},
			"request": {
				"method": "PUT",
				"url": "MedicationRequest/ed5lr-1vXUZ6K4uoUu-7eFvP0IdE1ZZo8W7LkmIwv8Jk3"
			}
		},
		{
			"resource": {"resourceType":"MedicationRequest","id":"erCAC8RysS72QRD7VaRBXAACktdCVM57T3p7E43vtIuM3","identifier":[{"use":"usual","system":"urn:oid:1.2.840.114350.1.13.301.3.7.2.798268","value":"30737641"}],"status":"stopped","intent":"order","category":[{"coding":[{"system":"http://terminology.hl7.org/CodeSystem/medicationrequest-category","code":"community","display":"Community"}],"text":"Community"}],"medicationReference":{"reference":"Medication/eq8BJ1DaJt1FcB2EI6cC3s4EoekP2A6BZSBmzDUeF9HRObG2OWKEOd9eLxZ2KXAziuhGATStaFHjlg1CISSIiRcfHA8B4SWL3uo9zBOS45Tk3","display":"oxyCODONE (OxyCONTIN) 12 hr tablet"},"subject":{"reference":"Patient/eOTWcfBK0B.0nnWNAZ-rrxA3","display":"Zzzunexp, NegAmbNine"},"encounter":{"reference":"Encounter/eJLoNtVFzxi-c-g3dv7ZzZQ3","identifier":{"use":"usual","system":"urn:oid:1.2.840.114350.1.13.301.3.7.3.698084.8","value":"80437322"},"display":"Office Visit"},"authoredOn":"2024-07-18","requester":{"reference":"Practitioner/edVgNmZO8PsofzicgHOR39A3","type":"Practitioner","display":"Physician Family Medicine, MD"},"recorder":{"reference":"Practitioner/edVgNmZO8PsofzicgHOR39A3","type":"Practitioner","display":"Physician Family Medicine, MD"},"reasonCode":[{"coding":[{"system":"http://snomed.info/sct","code":"161891005","display":"Backache (finding)"},{"system":"http://hl7.org/fhir/sid/icd-9-cm","code":"724.5","display":"Back pain, unspecified back location, unspecified back pain laterality, unspecified chronicity"},{"system":"http://hl7.org/fhir/sid/icd-10-cm","code":"M54.9","display":"Back pain, unspecified back location, unspecified back pain laterality, unspecified chronicity"}],"text":"Back pain, unspecified back location, unspecified back pain laterality, unspecified chronicity"}],"courseOfTherapyType":{"coding":[{"system":"http://terminology.hl7.org/CodeSystem/medicationrequest-course-of-therapy","code":"acute","display":"Short course (acute) therapy"}],"text":"Short course (acute) therapy"},"dosageInstruction":[{"text":"Take 1 tablet (80 mg total) by mouth every 12 (twelve) hours., Starting Thu 7/18/2024, Until Thu 7/18/2024, Print","patientInstruction":"Take 1 tablet (80 mg total) by mouth every 12 (twelve) hours.","timing":{"repeat":{"boundsPeriod":{"start":"2024-07-18","end":"2024-07-18"},"count":60,"frequency":1,"period":12,"periodUnit":"h"},"code":{"text":"every 12 (twelve) hours"}},"asNeededBoolean":false,"route":{"coding":[{"system":"http://snomed.info/sct","code":"26643006","display":"Oral route (qualifier value)"},{"system":"urn:oid:1.2.840.114350.1.13.301.3.7.4.798268.7025","code":"15","display":"Oral"}],"text":"Oral"},"method":{"coding":[{"system":"http://snomed.info/sct","code":"419652001","display":"Take"}],"text":"Take"},"doseAndRate":[{"type":{"coding":[{"system":"http://epic.com/CodeSystem/dose-rate-type","code":"calculated","display":"calculated"}],"text":"calculated"},"doseQuantity":{"value":80,"unit":"mg","system":"http://unitsofmeasure.org","code":"mg"}},{"type":{"coding":[{"system":"http://epic.com/CodeSystem/dose-rate-type","code":"admin-amount","display":"admin-amount"}],"text":"admin-amount"},"doseQuantity":{"value":1,"unit":"tablet","system":"http://unitsofmeasure.org","code":"{tbl}"}},{"type":{"coding":[{"system":"http://epic.com/CodeSystem/dose-rate-type","code":"ordered","display":"ordered"}],"text":"ordered"},"doseQuantity":{"value":80,"unit":"mg","system":"http://unitsofmeasure.org","code":"mg"}}]}],"dispenseRequest":{"validityPeriod":{"start":"2024-07-18","end":"2024-07-18"},"numberOfRepeatsAllowed":0,"quantity":{"value":60,"unit":"tablet"},"expectedSupplyDuration":{"value":30,"unit":"Day","system":"http://unitsofmeasure.org","code":"d"}}},
			"request": {
				"method": "PUT",
				"url": "MedicationRequest/erCAC8RysS72QRD7VaRBXAACktdCVM57T3p7E43vtIuM3"
			}
		},
		{
			"resource": {"resourceType":"MedicationRequest","id":"eviFwMfwtbYpYh.8Cynhg3Dqj9qOLJL7iI0F3PQSpqn43","identifier":[{"use":"usual","system":"urn:oid:1.2.840.114350.1.13.301.3.7.2.798268","value":"30737619"}],"status":"stopped","intent":"order","category":[{"coding":[{"system":"http://terminology.hl7.org/CodeSystem/medicationrequest-category","code":"community","display":"Community"}],"text":"Community"}],"medicationReference":{"reference":"Medication/eq8BJ1DaJt1FcB2EI6cC3s4khBlHgKFIXw0L503W0XYukHanPZkNdv6n3bOLHVtr4.XWrwDrk3oXe7Sm3K5H1u7HGIvqpj05OjRoovvAxxhI3","display":"oxyCODONE (OxyCONTIN) 12 hr tablet"},"subject":{"reference":"Patient/eOTWcfBK0B.0nnWNAZ-rrxA3","display":"Zzzunexp, NegAmbNine"},"encounter":{"reference":"Encounter/eJLoNtVFzxi-c-g3dv7ZzZQ3","identifier":{"use":"usual","system":"urn:oid:1.2.840.114350.1.13.301.3.7.3.698084.8","value":"80437322"},"display":"Office Visit"},"authoredOn":"2024-07-18","requester":{"reference":"Practitioner/edVgNmZO8PsofzicgHOR39A3","type":"Practitioner","display":"Physician Family Medicine, MD"},"recorder":{"reference":"Practitioner/edVgNmZO8PsofzicgHOR39A3","type":"Practitioner","display":"Physician Family Medicine, MD"},"reasonCode":[{"coding":[{"system":"http://snomed.info/sct","code":"161891005","display":"Backache (finding)"},{"system":"http://hl7.org/fhir/sid/icd-9-cm","code":"724.5","display":"Back pain, unspecified back location, unspecified back pain laterality, unspecified chronicity"},{"system":"http://hl7.org/fhir/sid/icd-10-cm","code":"M54.9","display":"Back pain, unspecified back location, unspecified back pain laterality, unspecified chronicity"}],"text":"Back pain, unspecified back location, unspecified back pain laterality, unspecified chronicity"}],"courseOfTherapyType":{"coding":[{"system":"http://terminology.hl7.org/CodeSystem/medicationrequest-course-of-therapy","code":"acute","display":"Short course (acute) therapy"}],"text":"Short course (acute) therapy"},"dosageInstruction":[{"text":"Take 1 tablet (80 mg total) by mouth every 12 (twelve) hours., Starting Thu 7/18/2024, Until Thu 7/18/2024, Print","patientInstruction":"Take 1 tablet (80 mg total) by mouth every 12 (twelve) hours.","timing":{"repeat":{"boundsPeriod":{"start":"2024-07-18","end":"2024-07-18"},"count":60,"frequency":1,"period":12,"periodUnit":"h"},"code":{"text":"every 12 (twelve) hours"}},"asNeededBoolean":false,"route":{"coding":[{"system":"http://snomed.info/sct","code":"26643006","display":"Oral route (qualifier value)"},{"system":"urn:oid:1.2.840.114350.1.13.301.3.7.4.798268.7025","code":"15","display":"Oral"}],"text":"Oral"},"method":{"coding":[{"system":"http://snomed.info/sct","code":"419652001","display":"Take"}],"text":"Take"},"doseAndRate":[{"type":{"coding":[{"system":"http://epic.com/CodeSystem/dose-rate-type","code":"calculated","display":"calculated"}],"text":"calculated"},"doseQuantity":{"value":80,"unit":"mg","system":"http://unitsofmeasure.org","code":"mg"}},{"type":{"coding":[{"system":"http://epic.com/CodeSystem/dose-rate-type","code":"admin-amount","display":"admin-amount"}],"text":"admin-amount"},"doseQuantity":{"value":1,"unit":"tablet","system":"http://unitsofmeasure.org","code":"{tbl}"}},{"type":{"coding":[{"system":"http://epic.com/CodeSystem/dose-rate-type","code":"ordered","display":"ordered"}],"text":"ordered"},"doseQuantity":{"value":80,"unit":"mg","system":"http://unitsofmeasure.org","code":"mg"}}]}],"dispenseRequest":{"validityPeriod":{"start":"2024-07-18","end":"2024-07-18"},"numberOfRepeatsAllowed":0,"quantity":{"value":60,"unit":"tablet"},"expectedSupplyDuration":{"value":30,"unit":"Day","system":"http://unitsofmeasure.org","code":"d"}}},
			"request": {
				"method": "PUT",
				"url": "MedicationRequest/eviFwMfwtbYpYh.8Cynhg3Dqj9qOLJL7iI0F3PQSpqn43"
			}
		},
		{
			"resource": {"resourceType":"MedicationRequest","id":"ezvfLUkpKN7f5mvrVh.OTwZtbNKTPh6F2kY8LfbCiRZs3","identifier":[{"use":"usual","system":"urn:oid:1.2.840.114350.1.13.301.3.7.2.798268","value":"30737625"}],"status":"stopped","intent":"order","category":[{"coding":[{"system":"http://terminology.hl7.org/CodeSystem/medicationrequest-category","code":"community","display":"Community"}],"text":"Community"}],"medicationReference":{"reference":"Medication/eq8BJ1DaJt1FcB2EI6cC3s4slo4b5CHbZ260R5MXUV10zEgMFSdNwutUCzxakOC9B3q48MDK9KB7IKYHfKOjcuHQ8K6c4BisekwjIxT-ynIs3","display":"oxyCODONE (OxyCONTIN) 12 hr tablet"},"subject":{"reference":"Patient/eOTWcfBK0B.0nnWNAZ-rrxA3","display":"Zzzunexp, NegAmbNine"},"encounter":{"reference":"Encounter/eJLoNtVFzxi-c-g3dv7ZzZQ3","identifier":{"use":"usual","system":"urn:oid:1.2.840.114350.1.13.301.3.7.3.698084.8","value":"80437322"},"display":"Office Visit"},"authoredOn":"2024-07-18","requester":{"reference":"Practitioner/edVgNmZO8PsofzicgHOR39A3","type":"Practitioner","display":"Physician Family Medicine, MD"},"recorder":{"reference":"Practitioner/edVgNmZO8PsofzicgHOR39A3","type":"Practitioner","display":"Physician Family Medicine, MD"},"reasonCode":[{"coding":[{"system":"http://snomed.info/sct","code":"161891005","display":"Backache (finding)"},{"system":"http://hl7.org/fhir/sid/icd-9-cm","code":"724.5","display":"Back pain, unspecified back location, unspecified back pain laterality, unspecified chronicity"},{"system":"http://hl7.org/fhir/sid/icd-10-cm","code":"M54.9","display":"Back pain, unspecified back location, unspecified back pain laterality, unspecified chronicity"}],"text":"Back pain, unspecified back location, unspecified back pain laterality, unspecified chronicity"}],"courseOfTherapyType":{"coding":[{"system":"http://terminology.hl7.org/CodeSystem/medicationrequest-course-of-therapy","code":"acute","display":"Short course (acute) therapy"}],"text":"Short course (acute) therapy"},"dosageInstruction":[{"text":"Take 1 tablet (80 mg total) by mouth every 12 (twelve) hours., Starting Thu 7/18/2024, Until Thu 7/18/2024, Print","patientInstruction":"Take 1 tablet (80 mg total) by mouth every 12 (twelve) hours.","timing":{"repeat":{"boundsPeriod":{"start":"2024-07-18","end":"2024-07-18"},"count":60,"frequency":1,"period":12,"periodUnit":"h"},"code":{"text":"every 12 (twelve) hours"}},"asNeededBoolean":false,"route":{"coding":[{"system":"http://snomed.info/sct","code":"26643006","display":"Oral route (qualifier value)"},{"system":"urn:oid:1.2.840.114350.1.13.301.3.7.4.798268.7025","code":"15","display":"Oral"}],"text":"Oral"},"method":{"coding":[{"system":"http://snomed.info/sct","code":"419652001","display":"Take"}],"text":"Take"},"doseAndRate":[{"type":{"coding":[{"system":"http://epic.com/CodeSystem/dose-rate-type","code":"calculated","display":"calculated"}],"text":"calculated"},"doseQuantity":{"value":80,"unit":"mg","system":"http://unitsofmeasure.org","code":"mg"}},{"type":{"coding":[{"system":"http://epic.com/CodeSystem/dose-rate-type","code":"admin-amount","display":"admin-amount"}],"text":"admin-amount"},"doseQuantity":{"value":1,"unit":"tablet","system":"http://unitsofmeasure.org","code":"{tbl}"}},{"type":{"coding":[{"system":"http://epic.com/CodeSystem/dose-rate-type","code":"ordered","display":"ordered"}],"text":"ordered"},"doseQuantity":{"value":80,"unit":"mg","system":"http://unitsofmeasure.org","code":"mg"}}]}],"dispenseRequest":{"validityPeriod":{"start":"2024-07-18","end":"2024-07-18"},"numberOfRepeatsAllowed":0,"quantity":{"value":60,"unit":"tablet"},"expectedSupplyDuration":{"value":30,"unit":"Day","system":"http://unitsofmeasure.org","code":"d"}}},
			"request": {
				"method": "PUT",
				"url": "MedicationRequest/ezvfLUkpKN7f5mvrVh.OTwZtbNKTPh6F2kY8LfbCiRZs3"
			}
		},
		{
			"resource": {"resourceType":"Medication","id":"eNy319a1nGWQoorJUwAczCs7WJiBlOOTxJTAOXIjWm8KBNvOnIRTFdGRFvKqYU99GNAJKQ709NqJ0eJsI30tFSJj5qItidc9ewhwPhAvBTd43","identifier":[{"use":"usual","system":"urn:oid:1.2.840.114350.1.13.301.3.7.2.698288","value":"41382"}],"code":{"coding":[{"system":"http://www.whocc.no/atc","code":"N02AB03"},{"system":"urn:oid:2.16.840.1.113883.6.208","code":"59102"},{"system":"http://www.nlm.nih.gov/research/umls/rxnorm","code":"4337"},{"system":"http://www.nlm.nih.gov/research/umls/rxnorm","code":"142436"},{"system":"http://www.nlm.nih.gov/research/umls/rxnorm","code":"1652097"},{"system":"http://www.nlm.nih.gov/research/umls/rxnorm","code":"577057"},{"system":"http://www.nlm.nih.gov/research/umls/rxnorm","code":"4336"},{"system":"http://www.nlm.nih.gov/research/umls/rxnorm","code":"151678"},{"system":"http://www.nlm.nih.gov/research/umls/rxnorm","code":"1237051"},{"system":"http://www.nlm.nih.gov/research/umls/rxnorm","code":"1487612"},{"system":"http://www.nlm.nih.gov/research/umls/rxnorm","code":"583490"}],"text":"fentaNYL (DURAGESIC) patch"},"form":{"coding":[{"system":"urn:oid:1.2.840.114350.1.13.301.3.7.4.698288.310","code":"PT72","display":"Patch 72 hr"}],"text":"Patch 72 hr"},"ingredient":[{"itemCodeableConcept":{"coding":[{"system":"http://www.whocc.no/atc","code":"N02AB03"},{"system":"urn:oid:2.16.840.1.113883.6.208","code":"59102"},{"system":"http://www.nlm.nih.gov/research/umls/rxnorm","code":"4337"},{"system":"http://www.nlm.nih.gov/research/umls/rxnorm","code":"142436"},{"system":"http://www.nlm.nih.gov/research/umls/rxnorm","code":"1652097"},{"system":"http://www.nlm.nih.gov/research/umls/rxnorm","code":"577057"},{"system":"http://www.nlm.nih.gov/research/umls/rxnorm","code":"4336"},{"system":"http://www.nlm.nih.gov/research/umls/rxnorm","code":"151678"},{"system":"http://www.nlm.nih.gov/research/umls/rxnorm","code":"1237051"},{"system":"http://www.nlm.nih.gov/research/umls/rxnorm","code":"1487612"},{"system":"http://www.nlm.nih.gov/research/umls/rxnorm","code":"583490"}],"text":"fentaNYL (DURAGESIC) patch"},"strength":{"numerator":{"value":12,"unit":"mcg/hr","system":"http://unitsofmeasure.org","code":"ug/h"},"denominator":{"value":12,"unit":"mcg/hr","system":"http://unitsofmeasure.org","code":"ug/h"}}}]},
			"request": {
				"method": "PUT",
				"url": "Medication/eNy319a1nGWQoorJUwAczCs7WJiBlOOTxJTAOXIjWm8KBNvOnIRTFdGRFvKqYU99GNAJKQ709NqJ0eJsI30tFSJj5qItidc9ewhwPhAvBTd43"
			}
		},
		{
			"resource": {"resourceType":"Medication","id":"eq8BJ1DaJt1FcB2EI6cC3s06kz.ZVkrBz6CO92hTChDilIMQIxL2dlEzyqkz.UvtloYBIPHkTgQlClF5VIuyqGM8CS0oz.y3K6aoSzRe-Fc83","identifier":[{"use":"usual","system":"urn:oid:1.2.840.114350.1.13.301.3.7.2.698288","value":"173935"}],"code":{"coding":[{"system":"http://www.whocc.no/atc","code":"N02AA05"},{"system":"urn:oid:2.16.840.1.113883.6.208","code":"72868"},{"system":"http://www.nlm.nih.gov/research/umls/rxnorm","code":"7804"},{"system":"http://www.nlm.nih.gov/research/umls/rxnorm","code":"82063"},{"system":"http://www.nlm.nih.gov/research/umls/rxnorm","code":"159821"},{"system":"http://www.nlm.nih.gov/research/umls/rxnorm","code":"1860148"},{"system":"http://www.nlm.nih.gov/research/umls/rxnorm","code":"218129"},{"system":"http://www.nlm.nih.gov/research/umls/rxnorm","code":"218986"},{"system":"http://www.nlm.nih.gov/research/umls/rxnorm","code":"218987"},{"system":"http://www.nlm.nih.gov/research/umls/rxnorm","code":"219160"},{"system":"http://www.nlm.nih.gov/research/umls/rxnorm","code":"219740"},{"system":"http://www.nlm.nih.gov/research/umls/rxnorm","code":"352858"},{"system":"http://www.nlm.nih.gov/research/umls/rxnorm","code":"541043"},{"system":"http://www.nlm.nih.gov/research/umls/rxnorm","code":"541047"},{"system":"http://www.nlm.nih.gov/research/umls/rxnorm","code":"602169"},{"system":"http://www.nlm.nih.gov/research/umls/rxnorm","code":"607620"},{"system":"http://www.nlm.nih.gov/research/umls/rxnorm","code":"790841"},{"system":"http://www.nlm.nih.gov/research/umls/rxnorm","code":"1113310"},{"system":"http://www.nlm.nih.gov/research/umls/rxnorm","code":"1664443"},{"system":"http://www.nlm.nih.gov/research/umls/rxnorm","code":"1944530"},{"system":"http://www.nlm.nih.gov/research/umls/rxnorm","code":"1049601"}],"text":"oxyCODONE (OxyCONTIN) 12 hr tablet"},"form":{"coding":[{"system":"urn:oid:1.2.840.114350.1.13.301.3.7.4.698288.310","code":"TR12","display":"tablet,oral only,ext.rel.12 hr"}],"text":"tablet,oral only,ext.rel.12 hr"},"ingredient":[{"itemCodeableConcept":{"coding":[{"system":"http://www.whocc.no/atc","code":"N02AA05"},{"system":"urn:oid:2.16.840.1.113883.6.208","code":"72868"},{"system":"http://www.nlm.nih.gov/research/umls/rxnorm","code":"7804"},{"system":"http://www.nlm.nih.gov/research/umls/rxnorm","code":"82063"},{"system":"http://www.nlm.nih.gov/research/umls/rxnorm","code":"159821"},{"system":"http://www.nlm.nih.gov/research/umls/rxnorm","code":"1860148"},{"system":"http://www.nlm.nih.gov/research/umls/rxnorm","code":"218129"},{"system":"http://www.nlm.nih.gov/research/umls/rxnorm","code":"218986"},{"system":"http://www.nlm.nih.gov/research/umls/rxnorm","code":"218987"},{"system":"http://www.nlm.nih.gov/research/umls/rxnorm","code":"219160"},{"system":"http://www.nlm.nih.gov/research/umls/rxnorm","code":"219740"},{"system":"http://www.nlm.nih.gov/research/umls/rxnorm","code":"352858"},{"system":"http://www.nlm.nih.gov/research/umls/rxnorm","code":"541043"},{"system":"http://www.nlm.nih.gov/research/umls/rxnorm","code":"541047"},{"system":"http://www.nlm.nih.gov/research/umls/rxnorm","code":"602169"},{"system":"http://www.nlm.nih.gov/research/umls/rxnorm","code":"607620"},{"system":"http://www.nlm.nih.gov/research/umls/rxnorm","code":"790841"},{"system":"http://www.nlm.nih.gov/research/umls/rxnorm","code":"1113310"},{"system":"http://www.nlm.nih.gov/research/umls/rxnorm","code":"1664443"},{"system":"http://www.nlm.nih.gov/research/umls/rxnorm","code":"1944530"},{"system":"http://www.nlm.nih.gov/research/umls/rxnorm","code":"1049601"}],"text":"oxyCODONE (OxyCONTIN) 12 hr tablet"},"strength":{"numerator":{"value":80,"unit":"mg","system":"http://unitsofmeasure.org","code":"mg"},"denominator":{"value":80,"unit":"mg","system":"http://unitsofmeasure.org","code":"mg"}}}]},
			"request": {
				"method": "PUT",
				"url": "Medication/eq8BJ1DaJt1FcB2EI6cC3s06kz.ZVkrBz6CO92hTChDilIMQIxL2dlEzyqkz.UvtloYBIPHkTgQlClF5VIuyqGM8CS0oz.y3K6aoSzRe-Fc83"
			}
		},
		{
			"resource": {"resourceType":"Medication","id":"eq8BJ1DaJt1FcB2EI6cC3s0y4iCq.lrvN.zQ8uy-82upa9VLsmncWyqvQwgGTqcDOTJ-NfyeuDONYmhIUC3E5l-ucKgBvFiRVn-9Yic-mUn43","identifier":[{"use":"usual","system":"urn:oid:1.2.840.114350.1.13.301.3.7.2.698288","value":"173935"}],"code":{"coding":[{"system":"http://www.whocc.no/atc","code":"N02AA05"},{"system":"urn:oid:2.16.840.1.113883.6.208","code":"72868"},{"system":"http://www.nlm.nih.gov/research/umls/rxnorm","code":"7804"},{"system":"http://www.nlm.nih.gov/research/umls/rxnorm","code":"82063"},{"system":"http://www.nlm.nih.gov/research/umls/rxnorm","code":"159821"},{"system":"http://www.nlm.nih.gov/research/umls/rxnorm","code":"1860148"},{"system":"http://www.nlm.nih.gov/research/umls/rxnorm","code":"218129"},{"system":"http://www.nlm.nih.gov/research/umls/rxnorm","code":"218986"},{"system":"http://www.nlm.nih.gov/research/umls/rxnorm","code":"218987"},{"system":"http://www.nlm.nih.gov/research/umls/rxnorm","code":"219160"},{"system":"http://www.nlm.nih.gov/research/umls/rxnorm","code":"219740"},{"system":"http://www.nlm.nih.gov/research/umls/rxnorm","code":"352858"},{"system":"http://www.nlm.nih.gov/research/umls/rxnorm","code":"541043"},{"system":"http://www.nlm.nih.gov/research/umls/rxnorm","code":"541047"},{"system":"http://www.nlm.nih.gov/research/umls/rxnorm","code":"602169"},{"system":"http://www.nlm.nih.gov/research/umls/rxnorm","code":"607620"},{"system":"http://www.nlm.nih.gov/research/umls/rxnorm","code":"790841"},{"system":"http://www.nlm.nih.gov/research/umls/rxnorm","code":"1113310"},{"system":"http://www.nlm.nih.gov/research/umls/rxnorm","code":"1664443"},{"system":"http://www.nlm.nih.gov/research/umls/rxnorm","code":"1944530"},{"system":"http://www.nlm.nih.gov/research/umls/rxnorm","code":"1049601"}],"text":"oxyCODONE (OxyCONTIN) 12 hr tablet"},"form":{"coding":[{"system":"urn:oid:1.2.840.114350.1.13.301.3.7.4.698288.310","code":"TR12","display":"tablet,oral only,ext.rel.12 hr"}],"text":"tablet,oral only,ext.rel.12 hr"},"ingredient":[{"itemCodeableConcept":{"coding":[{"system":"http://www.whocc.no/atc","code":"N02AA05"},{"system":"urn:oid:2.16.840.1.113883.6.208","code":"72868"},{"system":"http://www.nlm.nih.gov/research/umls/rxnorm","code":"7804"},{"system":"http://www.nlm.nih.gov/research/umls/rxnorm","code":"82063"},{"system":"http://www.nlm.nih.gov/research/umls/rxnorm","code":"159821"},{"system":"http://www.nlm.nih.gov/research/umls/rxnorm","code":"1860148"},{"system":"http://www.nlm.nih.gov/research/umls/rxnorm","code":"218129"},{"system":"http://www.nlm.nih.gov/research/umls/rxnorm","code":"218986"},{"system":"http://www.nlm.nih.gov/research/umls/rxnorm","code":"218987"},{"system":"http://www.nlm.nih.gov/research/umls/rxnorm","code":"219160"},{"system":"http://www.nlm.nih.gov/research/umls/rxnorm","code":"219740"},{"system":"http://www.nlm.nih.gov/research/umls/rxnorm","code":"352858"},{"system":"http://www.nlm.nih.gov/research/umls/rxnorm","code":"541043"},{"system":"http://www.nlm.nih.gov/research/umls/rxnorm","code":"541047"},{"system":"http://www.nlm.nih.gov/research/umls/rxnorm","code":"602169"},{"system":"http://www.nlm.nih.gov/research/umls/rxnorm","code":"607620"},{"system":"http://www.nlm.nih.gov/research/umls/rxnorm","code":"790841"},{"system":"http://www.nlm.nih.gov/research/umls/rxnorm","code":"1113310"},{"system":"http://www.nlm.nih.gov/research/umls/rxnorm","code":"1664443"},{"system":"http://www.nlm.nih.gov/research/umls/rxnorm","code":"1944530"},{"system":"http://www.nlm.nih.gov/research/umls/rxnorm","code":"1049601"}],"text":"oxyCODONE (OxyCONTIN) 12 hr tablet"},"strength":{"numerator":{"value":80,"unit":"mg","system":"http://unitsofmeasure.org","code":"mg"},"denominator":{"value":80,"unit":"mg","system":"http://unitsofmeasure.org","code":"mg"}}}]},
			"request": {
				"method": "PUT",
				"url": "Medication/eq8BJ1DaJt1FcB2EI6cC3s0y4iCq.lrvN.zQ8uy-82upa9VLsmncWyqvQwgGTqcDOTJ-NfyeuDONYmhIUC3E5l-ucKgBvFiRVn-9Yic-mUn43"
			}
		},
		{
			"resource": {"resourceType":"Medication","id":"eq8BJ1DaJt1FcB2EI6cC3s2OZ7zS9g4MXYn8iEbS15XYDjtETWNG6G.nj6yR1Vzal1q5QsFzlxf6B0z9IHElzCGLGLqNpCc6wOsI6uJrd8TM3","identifier":[{"use":"usual","system":"urn:oid:1.2.840.114350.1.13.301.3.7.2.698288","value":"173935"}],"code":{"coding":[{"system":"http://www.whocc.no/atc","code":"N02AA05"},{"system":"urn:oid:2.16.840.1.113883.6.208","code":"72868"},{"system":"http://www.nlm.nih.gov/research/umls/rxnorm","code":"7804"},{"system":"http://www.nlm.nih.gov/research/umls/rxnorm","code":"82063"},{"system":"http://www.nlm.nih.gov/research/umls/rxnorm","code":"159821"},{"system":"http://www.nlm.nih.gov/research/umls/rxnorm","code":"1860148"},{"system":"http://www.nlm.nih.gov/research/umls/rxnorm","code":"218129"},{"system":"http://www.nlm.nih.gov/research/umls/rxnorm","code":"218986"},{"system":"http://www.nlm.nih.gov/research/umls/rxnorm","code":"218987"},{"system":"http://www.nlm.nih.gov/research/umls/rxnorm","code":"219160"},{"system":"http://www.nlm.nih.gov/research/umls/rxnorm","code":"219740"},{"system":"http://www.nlm.nih.gov/research/umls/rxnorm","code":"352858"},{"system":"http://www.nlm.nih.gov/research/umls/rxnorm","code":"541043"},{"system":"http://www.nlm.nih.gov/research/umls/rxnorm","code":"541047"},{"system":"http://www.nlm.nih.gov/research/umls/rxnorm","code":"602169"},{"system":"http://www.nlm.nih.gov/research/umls/rxnorm","code":"607620"},{"system":"http://www.nlm.nih.gov/research/umls/rxnorm","code":"790841"},{"system":"http://www.nlm.nih.gov/research/umls/rxnorm","code":"1113310"},{"system":"http://www.nlm.nih.gov/research/umls/rxnorm","code":"1664443"},{"system":"http://www.nlm.nih.gov/research/umls/rxnorm","code":"1944530"},{"system":"http://www.nlm.nih.gov/research/umls/rxnorm","code":"1049601"}],"text":"oxyCODONE (OxyCONTIN) 12 hr tablet"},"form":{"coding":[{"system":"urn:oid:1.2.840.114350.1.13.301.3.7.4.698288.310","code":"TR12","display":"tablet,oral only,ext.rel.12 hr"}],"text":"tablet,oral only,ext.rel.12 hr"},"ingredient":[{"itemCodeableConcept":{"coding":[{"system":"http://www.whocc.no/atc","code":"N02AA05"},{"system":"urn:oid:2.16.840.1.113883.6.208","code":"72868"},{"system":"http://www.nlm.nih.gov/research/umls/rxnorm","code":"7804"},{"system":"http://www.nlm.nih.gov/research/umls/rxnorm","code":"82063"},{"system":"http://www.nlm.nih.gov/research/umls/rxnorm","code":"159821"},{"system":"http://www.nlm.nih.gov/research/umls/rxnorm","code":"1860148"},{"system":"http://www.nlm.nih.gov/research/umls/rxnorm","code":"218129"},{"system":"http://www.nlm.nih.gov/research/umls/rxnorm","code":"218986"},{"system":"http://www.nlm.nih.gov/research/umls/rxnorm","code":"218987"},{"system":"http://www.nlm.nih.gov/research/umls/rxnorm","code":"219160"},{"system":"http://www.nlm.nih.gov/research/umls/rxnorm","code":"219740"},{"system":"http://www.nlm.nih.gov/research/umls/rxnorm","code":"352858"},{"system":"http://www.nlm.nih.gov/research/umls/rxnorm","code":"541043"},{"system":"http://www.nlm.nih.gov/research/umls/rxnorm","code":"541047"},{"system":"http://www.nlm.nih.gov/research/umls/rxnorm","code":"602169"},{"system":"http://www.nlm.nih.gov/research/umls/rxnorm","code":"607620"},{"system":"http://www.nlm.nih.gov/research/umls/rxnorm","code":"790841"},{"system":"http://www.nlm.nih.gov/research/umls/rxnorm","code":"1113310"},{"system":"http://www.nlm.nih.gov/research/umls/rxnorm","code":"1664443"},{"system":"http://www.nlm.nih.gov/research/umls/rxnorm","code":"1944530"},{"system":"http://www.nlm.nih.gov/research/umls/rxnorm","code":"1049601"}],"text":"oxyCODONE (OxyCONTIN) 12 hr tablet"},"strength":{"numerator":{"value":80,"unit":"mg","system":"http://unitsofmeasure.org","code":"mg"},"denominator":{"value":80,"unit":"mg","system":"http://unitsofmeasure.org","code":"mg"}}}]},
			"request": {
				"method": "PUT",
				"url": "Medication/eq8BJ1DaJt1FcB2EI6cC3s2OZ7zS9g4MXYn8iEbS15XYDjtETWNG6G.nj6yR1Vzal1q5QsFzlxf6B0z9IHElzCGLGLqNpCc6wOsI6uJrd8TM3"
			}
		},
		{
			"resource": {"resourceType":"Medication","id":"eq8BJ1DaJt1FcB2EI6cC3s4EoekP2A6BZSBmzDUeF9HRObG2OWKEOd9eLxZ2KXAziuhGATStaFHjlg1CISSIiRcfHA8B4SWL3uo9zBOS45Tk3","identifier":[{"use":"usual","system":"urn:oid:1.2.840.114350.1.13.301.3.7.2.698288","value":"173935"}],"code":{"coding":[{"system":"http://www.whocc.no/atc","code":"N02AA05"},{"system":"urn:oid:2.16.840.1.113883.6.208","code":"72868"},{"system":"http://www.nlm.nih.gov/research/umls/rxnorm","code":"7804"},{"system":"http://www.nlm.nih.gov/research/umls/rxnorm","code":"82063"},{"system":"http://www.nlm.nih.gov/research/umls/rxnorm","code":"159821"},{"system":"http://www.nlm.nih.gov/research/umls/rxnorm","code":"1860148"},{"system":"http://www.nlm.nih.gov/research/umls/rxnorm","code":"218129"},{"system":"http://www.nlm.nih.gov/research/umls/rxnorm","code":"218986"},{"system":"http://www.nlm.nih.gov/research/umls/rxnorm","code":"218987"},{"system":"http://www.nlm.nih.gov/research/umls/rxnorm","code":"219160"},{"system":"http://www.nlm.nih.gov/research/umls/rxnorm","code":"219740"},{"system":"http://www.nlm.nih.gov/research/umls/rxnorm","code":"352858"},{"system":"http://www.nlm.nih.gov/research/umls/rxnorm","code":"541043"},{"system":"http://www.nlm.nih.gov/research/umls/rxnorm","code":"541047"},{"system":"http://www.nlm.nih.gov/research/umls/rxnorm","code":"602169"},{"system":"http://www.nlm.nih.gov/research/umls/rxnorm","code":"607620"},{"system":"http://www.nlm.nih.gov/research/umls/rxnorm","code":"790841"},{"system":"http://www.nlm.nih.gov/research/umls/rxnorm","code":"1113310"},{"system":"http://www.nlm.nih.gov/research/umls/rxnorm","code":"1664443"},{"system":"http://www.nlm.nih.gov/research/umls/rxnorm","code":"1944530"},{"system":"http://www.nlm.nih.gov/research/umls/rxnorm","code":"1049601"}],"text":"oxyCODONE (OxyCONTIN) 12 hr tablet"},"form":{"coding":[{"system":"urn:oid:1.2.840.114350.1.13.301.3.7.4.698288.310","code":"TR12","display":"tablet,oral only,ext.rel.12 hr"}],"text":"tablet,oral only,ext.rel.12 hr"},"ingredient":[{"itemCodeableConcept":{"coding":[{"system":"http://www.whocc.no/atc","code":"N02AA05"},{"system":"urn:oid:2.16.840.1.113883.6.208","code":"72868"},{"system":"http://www.nlm.nih.gov/research/umls/rxnorm","code":"7804"},{"system":"http://www.nlm.nih.gov/research/umls/rxnorm","code":"82063"},{"system":"http://www.nlm.nih.gov/research/umls/rxnorm","code":"159821"},{"system":"http://www.nlm.nih.gov/research/umls/rxnorm","code":"1860148"},{"system":"http://www.nlm.nih.gov/research/umls/rxnorm","code":"218129"},{"system":"http://www.nlm.nih.gov/research/umls/rxnorm","code":"218986"},{"system":"http://www.nlm.nih.gov/research/umls/rxnorm","code":"218987"},{"system":"http://www.nlm.nih.gov/research/umls/rxnorm","code":"219160"},{"system":"http://www.nlm.nih.gov/research/umls/rxnorm","code":"219740"},{"system":"http://www.nlm.nih.gov/research/umls/rxnorm","code":"352858"},{"system":"http://www.nlm.nih.gov/research/umls/rxnorm","code":"541043"},{"system":"http://www.nlm.nih.gov/research/umls/rxnorm","code":"541047"},{"system":"http://www.nlm.nih.gov/research/umls/rxnorm","code":"602169"},{"system":"http://www.nlm.nih.gov/research/umls/rxnorm","code":"607620"},{"system":"http://www.nlm.nih.gov/research/umls/rxnorm","code":"790841"},{"system":"http://www.nlm.nih.gov/research/umls/rxnorm","code":"1113310"},{"system":"http://www.nlm.nih.gov/research/umls/rxnorm","code":"1664443"},{"system":"http://www.nlm.nih.gov/research/umls/rxnorm","code":"1944530"},{"system":"http://www.nlm.nih.gov/research/umls/rxnorm","code":"1049601"}],"text":"oxyCODONE (OxyCONTIN) 12 hr tablet"},"strength":{"numerator":{"value":80,"unit":"mg","system":"http://unitsofmeasure.org","code":"mg"},"denominator":{"value":80,"unit":"mg","system":"http://unitsofmeasure.org","code":"mg"}}}]},
			"request": {
				"method": "PUT",
				"url": "Medication/eq8BJ1DaJt1FcB2EI6cC3s4EoekP2A6BZSBmzDUeF9HRObG2OWKEOd9eLxZ2KXAziuhGATStaFHjlg1CISSIiRcfHA8B4SWL3uo9zBOS45Tk3"
			}
		},
		{
			"resource": {"resourceType":"Medication","id":"eq8BJ1DaJt1FcB2EI6cC3s4khBlHgKFIXw0L503W0XYukHanPZkNdv6n3bOLHVtr4.XWrwDrk3oXe7Sm3K5H1u7HGIvqpj05OjRoovvAxxhI3","identifier":[{"use":"usual","system":"urn:oid:1.2.840.114350.1.13.301.3.7.2.698288","value":"173935"}],"code":{"coding":[{"system":"http://www.whocc.no/atc","code":"N02AA05"},{"system":"urn:oid:2.16.840.1.113883.6.208","code":"72868"},{"system":"http://www.nlm.nih.gov/research/umls/rxnorm","code":"7804"},{"system":"http://www.nlm.nih.gov/research/umls/rxnorm","code":"82063"},{"system":"http://www.nlm.nih.gov/research/umls/rxnorm","code":"159821"},{"system":"http://www.nlm.nih.gov/research/umls/rxnorm","code":"1860148"},{"system":"http://www.nlm.nih.gov/research/umls/rxnorm","code":"218129"},{"system":"http://www.nlm.nih.gov/research/umls/rxnorm","code":"218986"},{"system":"http://www.nlm.nih.gov/research/umls/rxnorm","code":"218987"},{"system":"http://www.nlm.nih.gov/research/umls/rxnorm","code":"219160"},{"system":"http://www.nlm.nih.gov/research/umls/rxnorm","code":"219740"},{"system":"http://www.nlm.nih.gov/research/umls/rxnorm","code":"352858"},{"system":"http://www.nlm.nih.gov/research/umls/rxnorm","code":"541043"},{"system":"http://www.nlm.nih.gov/research/umls/rxnorm","code":"541047"},{"system":"http://www.nlm.nih.gov/research/umls/rxnorm","code":"602169"},{"system":"http://www.nlm.nih.gov/research/umls/rxnorm","code":"607620"},{"system":"http://www.nlm.nih.gov/research/umls/rxnorm","code":"790841"},{"system":"http://www.nlm.nih.gov/research/umls/rxnorm","code":"1113310"},{"system":"http://www.nlm.nih.gov/research/umls/rxnorm","code":"1664443"},{"system":"http://www.nlm.nih.gov/research/umls/rxnorm","code":"1944530"},{"system":"http://www.nlm.nih.gov/research/umls/rxnorm","code":"1049601"}],"text":"oxyCODONE (OxyCONTIN) 12 hr tablet"},"form":{"coding":[{"system":"urn:oid:1.2.840.114350.1.13.301.3.7.4.698288.310","code":"TR12","display":"tablet,oral only,ext.rel.12 hr"}],"text":"tablet,oral only,ext.rel.12 hr"},"ingredient":[{"itemCodeableConcept":{"coding":[{"system":"http://www.whocc.no/atc","code":"N02AA05"},{"system":"urn:oid:2.16.840.1.113883.6.208","code":"72868"},{"system":"http://www.nlm.nih.gov/research/umls/rxnorm","code":"7804"},{"system":"http://www.nlm.nih.gov/research/umls/rxnorm","code":"82063"},{"system":"http://www.nlm.nih.gov/research/umls/rxnorm","code":"159821"},{"system":"http://www.nlm.nih.gov/research/umls/rxnorm","code":"1860148"},{"system":"http://www.nlm.nih.gov/research/umls/rxnorm","code":"218129"},{"system":"http://www.nlm.nih.gov/research/umls/rxnorm","code":"218986"},{"system":"http://www.nlm.nih.gov/research/umls/rxnorm","code":"218987"},{"system":"http://www.nlm.nih.gov/research/umls/rxnorm","code":"219160"},{"system":"http://www.nlm.nih.gov/research/umls/rxnorm","code":"219740"},{"system":"http://www.nlm.nih.gov/research/umls/rxnorm","code":"352858"},{"system":"http://www.nlm.nih.gov/research/umls/rxnorm","code":"541043"},{"system":"http://www.nlm.nih.gov/research/umls/rxnorm","code":"541047"},{"system":"http://www.nlm.nih.gov/research/umls/rxnorm","code":"602169"},{"system":"http://www.nlm.nih.gov/research/umls/rxnorm","code":"607620"},{"system":"http://www.nlm.nih.gov/research/umls/rxnorm","code":"790841"},{"system":"http://www.nlm.nih.gov/research/umls/rxnorm","code":"1113310"},{"system":"http://www.nlm.nih.gov/research/umls/rxnorm","code":"1664443"},{"system":"http://www.nlm.nih.gov/research/umls/rxnorm","code":"1944530"},{"system":"http://www.nlm.nih.gov/research/umls/rxnorm","code":"1049601"}],"text":"oxyCODONE (OxyCONTIN) 12 hr tablet"},"strength":{"numerator":{"value":80,"unit":"mg","system":"http://unitsofmeasure.org","code":"mg"},"denominator":{"value":80,"unit":"mg","system":"http://unitsofmeasure.org","code":"mg"}}}]},
			"request": {
				"method": "PUT",
				"url": "Medication/eq8BJ1DaJt1FcB2EI6cC3s4khBlHgKFIXw0L503W0XYukHanPZkNdv6n3bOLHVtr4.XWrwDrk3oXe7Sm3K5H1u7HGIvqpj05OjRoovvAxxhI3"
			}
		},
		{
			"resource": {"resourceType":"Medication","id":"eq8BJ1DaJt1FcB2EI6cC3s4slo4b5CHbZ260R5MXUV10zEgMFSdNwutUCzxakOC9B3q48MDK9KB7IKYHfKOjcuHQ8K6c4BisekwjIxT-ynIs3","identifier":[{"use":"usual","system":"urn:oid:1.2.840.114350.1.13.301.3.7.2.698288","value":"173935"}],"code":{"coding":[{"system":"http://www.whocc.no/atc","code":"N02AA05"},{"system":"urn:oid:2.16.840.1.113883.6.208","code":"72868"},{"system":"http://www.nlm.nih.gov/research/umls/rxnorm","code":"7804"},{"system":"http://www.nlm.nih.gov/research/umls/rxnorm","code":"82063"},{"system":"http://www.nlm.nih.gov/research/umls/rxnorm","code":"159821"},{"system":"http://www.nlm.nih.gov/research/umls/rxnorm","code":"1860148"},{"system":"http://www.nlm.nih.gov/research/umls/rxnorm","code":"218129"},{"system":"http://www.nlm.nih.gov/research/umls/rxnorm","code":"218986"},{"system":"http://www.nlm.nih.gov/research/umls/rxnorm","code":"218987"},{"system":"http://www.nlm.nih.gov/research/umls/rxnorm","code":"219160"},{"system":"http://www.nlm.nih.gov/research/umls/rxnorm","code":"219740"},{"system":"http://www.nlm.nih.gov/research/umls/rxnorm","code":"352858"},{"system":"http://www.nlm.nih.gov/research/umls/rxnorm","code":"541043"},{"system":"http://www.nlm.nih.gov/research/umls/rxnorm","code":"541047"},{"system":"http://www.nlm.nih.gov/research/umls/rxnorm","code":"602169"},{"system":"http://www.nlm.nih.gov/research/umls/rxnorm","code":"607620"},{"system":"http://www.nlm.nih.gov/research/umls/rxnorm","code":"790841"},{"system":"http://www.nlm.nih.gov/research/umls/rxnorm","code":"1113310"},{"system":"http://www.nlm.nih.gov/research/umls/rxnorm","code":"1664443"},{"system":"http://www.nlm.nih.gov/research/umls/rxnorm","code":"1944530"},{"system":"http://www.nlm.nih.gov/research/umls/rxnorm","code":"1049601"}],"text":"oxyCODONE (OxyCONTIN) 12 hr tablet"},"form":{"coding":[{"system":"urn:oid:1.2.840.114350.1.13.301.3.7.4.698288.310","code":"TR12","display":"tablet,oral only,ext.rel.12 hr"}],"text":"tablet,oral only,ext.rel.12 hr"},"ingredient":[{"itemCodeableConcept":{"coding":[{"system":"http://www.whocc.no/atc","code":"N02AA05"},{"system":"urn:oid:2.16.840.1.113883.6.208","code":"72868"},{"system":"http://www.nlm.nih.gov/research/umls/rxnorm","code":"7804"},{"system":"http://www.nlm.nih.gov/research/umls/rxnorm","code":"82063"},{"system":"http://www.nlm.nih.gov/research/umls/rxnorm","code":"159821"},{"system":"http://www.nlm.nih.gov/research/umls/rxnorm","code":"1860148"},{"system":"http://www.nlm.nih.gov/research/umls/rxnorm","code":"218129"},{"system":"http://www.nlm.nih.gov/research/umls/rxnorm","code":"218986"},{"system":"http://www.nlm.nih.gov/research/umls/rxnorm","code":"218987"},{"system":"http://www.nlm.nih.gov/research/umls/rxnorm","code":"219160"},{"system":"http://www.nlm.nih.gov/research/umls/rxnorm","code":"219740"},{"system":"http://www.nlm.nih.gov/research/umls/rxnorm","code":"352858"},{"system":"http://www.nlm.nih.gov/research/umls/rxnorm","code":"541043"},{"system":"http://www.nlm.nih.gov/research/umls/rxnorm","code":"541047"},{"system":"http://www.nlm.nih.gov/research/umls/rxnorm","code":"602169"},{"system":"http://www.nlm.nih.gov/research/umls/rxnorm","code":"607620"},{"system":"http://www.nlm.nih.gov/research/umls/rxnorm","code":"790841"},{"system":"http://www.nlm.nih.gov/research/umls/rxnorm","code":"1113310"},{"system":"http://www.nlm.nih.gov/research/umls/rxnorm","code":"1664443"},{"system":"http://www.nlm.nih.gov/research/umls/rxnorm","code":"1944530"},{"system":"http://www.nlm.nih.gov/research/umls/rxnorm","code":"1049601"}],"text":"oxyCODONE (OxyCONTIN) 12 hr tablet"},"strength":{"numerator":{"value":80,"unit":"mg","system":"http://unitsofmeasure.org","code":"mg"},"denominator":{"value":80,"unit":"mg","system":"http://unitsofmeasure.org","code":"mg"}}}]},
			"request": {
				"method": "PUT",
				"url": "Medication/eq8BJ1DaJt1FcB2EI6cC3s4slo4b5CHbZ260R5MXUV10zEgMFSdNwutUCzxakOC9B3q48MDK9KB7IKYHfKOjcuHQ8K6c4BisekwjIxT-ynIs3"
			}
		},
		{
			"resource": {"resourceType":"Medication","id":"eq8BJ1DaJt1FcB2EI6cC3swpmaSmbtFS1ZO0o7WzCLeINlZN0Dy8ZWeSQ3RP33h5Si2OQB0lr0MSZC1kB-vQ8QU6TPKFwjm-tUipqBb7r0g03","identifier":[{"use":"usual","system":"urn:oid:1.2.840.114350.1.13.301.3.7.2.698288","value":"173935"}],"code":{"coding":[{"system":"http://www.whocc.no/atc","code":"N02AA05"},{"system":"urn:oid:2.16.840.1.113883.6.208","code":"72868"},{"system":"http://www.nlm.nih.gov/research/umls/rxnorm","code":"7804"},{"system":"http://www.nlm.nih.gov/research/umls/rxnorm","code":"82063"},{"system":"http://www.nlm.nih.gov/research/umls/rxnorm","code":"159821"},{"system":"http://www.nlm.nih.gov/research/umls/rxnorm","code":"1860148"},{"system":"http://www.nlm.nih.gov/research/umls/rxnorm","code":"218129"},{"system":"http://www.nlm.nih.gov/research/umls/rxnorm","code":"218986"},{"system":"http://www.nlm.nih.gov/research/umls/rxnorm","code":"218987"},{"system":"http://www.nlm.nih.gov/research/umls/rxnorm","code":"219160"},{"system":"http://www.nlm.nih.gov/research/umls/rxnorm","code":"219740"},{"system":"http://www.nlm.nih.gov/research/umls/rxnorm","code":"352858"},{"system":"http://www.nlm.nih.gov/research/umls/rxnorm","code":"541043"},{"system":"http://www.nlm.nih.gov/research/umls/rxnorm","code":"541047"},{"system":"http://www.nlm.nih.gov/research/umls/rxnorm","code":"602169"},{"system":"http://www.nlm.nih.gov/research/umls/rxnorm","code":"607620"},{"system":"http://www.nlm.nih.gov/research/umls/rxnorm","code":"790841"},{"system":"http://www.nlm.nih.gov/research/umls/rxnorm","code":"1113310"},{"system":"http://www.nlm.nih.gov/research/umls/rxnorm","code":"1664443"},{"system":"http://www.nlm.nih.gov/research/umls/rxnorm","code":"1944530"},{"system":"http://www.nlm.nih.gov/research/umls/rxnorm","code":"1049601"}],"text":"oxyCODONE (OxyCONTIN) 12 hr tablet"},"form":{"coding":[{"system":"urn:oid:1.2.840.114350.1.13.301.3.7.4.698288.310","code":"TR12","display":"tablet,oral only,ext.rel.12 hr"}],"text":"tablet,oral only,ext.rel.12 hr"},"ingredient":[{"itemCodeableConcept":{"coding":[{"system":"http://www.whocc.no/atc","code":"N02AA05"},{"system":"urn:oid:2.16.840.1.113883.6.208","code":"72868"},{"system":"http://www.nlm.nih.gov/research/umls/rxnorm","code":"7804"},{"system":"http://www.nlm.nih.gov/research/umls/rxnorm","code":"82063"},{"system":"http://www.nlm.nih.gov/research/umls/rxnorm","code":"159821"},{"system":"http://www.nlm.nih.gov/research/umls/rxnorm","code":"1860148"},{"system":"http://www.nlm.nih.gov/research/umls/rxnorm","code":"218129"},{"system":"http://www.nlm.nih.gov/research/umls/rxnorm","code":"218986"},{"system":"http://www.nlm.nih.gov/research/umls/rxnorm","code":"218987"},{"system":"http://www.nlm.nih.gov/research/umls/rxnorm","code":"219160"},{"system":"http://www.nlm.nih.gov/research/umls/rxnorm","code":"219740"},{"system":"http://www.nlm.nih.gov/research/umls/rxnorm","code":"352858"},{"system":"http://www.nlm.nih.gov/research/umls/rxnorm","code":"541043"},{"system":"http://www.nlm.nih.gov/research/umls/rxnorm","code":"541047"},{"system":"http://www.nlm.nih.gov/research/umls/rxnorm","code":"602169"},{"system":"http://www.nlm.nih.gov/research/umls/rxnorm","code":"607620"},{"system":"http://www.nlm.nih.gov/research/umls/rxnorm","code":"790841"},{"system":"http://www.nlm.nih.gov/research/umls/rxnorm","code":"1113310"},{"system":"http://www.nlm.nih.gov/research/umls/rxnorm","code":"1664443"},{"system":"http://www.nlm.nih.gov/research/umls/rxnorm","code":"1944530"},{"system":"http://www.nlm.nih.gov/research/umls/rxnorm","code":"1049601"}],"text":"oxyCODONE (OxyCONTIN) 12 hr tablet"},"strength":{"numerator":{"value":80,"unit":"mg","system":"http://unitsofmeasure.org","code":"mg"},"denominator":{"value":80,"unit":"mg","system":"http://unitsofmeasure.org","code":"mg"}}}]},
			"request": {
				"method": "PUT",
				"url": "Medication/eq8BJ1DaJt1FcB2EI6cC3swpmaSmbtFS1ZO0o7WzCLeINlZN0Dy8ZWeSQ3RP33h5Si2OQB0lr0MSZC1kB-vQ8QU6TPKFwjm-tUipqBb7r0g03"
			}
		},
		{
			"resource": {"resourceType":"OperationOutcome","issue":[{"severity":"information","code":"processing","details":{"coding":[{"system":"urn:oid:1.2.840.114350.1.13.301.3.7.2.657369","code":"59133","display":"Processing issues."}],"text":"Processing issues."},"diagnostics":"clinical-status parameter will filter out results for encounter-level Conditions.","location":["/f:encounter/clinical-status"],"expression":["encounter/clinical-status"]},{"severity":"warning","code":"suppressed","details":{"coding":[{"system":"urn:oid:1.2.840.114350.1.13.301.3.7.2.657369","code":"59204","display":"The authenticated client's search request applies to a sub-resource that the client is not authorized for. Results of this sub-type will not be returned."}],"text":"The authenticated client's search request applies to a sub-resource that the client is not authorized for. Results of this sub-type will not be returned."},"diagnostics":"Client not authorized for Condition - Health Concerns. Search results of this type have not been included."},{"severity":"warning","code":"processing","details":{"coding":[{"system":"urn:oid:1.2.840.114350.1.13.301.3.7.2.657369","code":"4101","display":"Resource request returns no results."}],"text":"Resource request returns no results."}}]},
			"request": {
				"method": "PUT"
			}
		},
		{
			"resource": {"resourceType":"Encounter","id":"eJLoNtVFzxi-c-g3dv7ZzZQ3","identifier":[{"use":"usual","system":"urn:oid:1.2.840.114350.1.13.301.3.7.3.698084.8","value":"80437322"}],"status":"in-progress","class":{"system":"urn:oid:1.2.840.114350.1.72.1.7.7.10.696784.13260","code":"13","display":"Support OP Encounter"},"type":[{"coding":[{"system":"urn:oid:1.2.840.114350.1.13.301.3.7.10.698084.30","code":"101","display":"Office Visit"}],"text":"Office Visit"}],"subject":{"reference":"Patient/eOTWcfBK0B.0nnWNAZ-rrxA3","display":"Zzzunexp, NegAmbNine"},"participant":[{"type":[{"coding":[{"system":"http://terminology.hl7.org/CodeSystem/v3-ParticipationType","code":"PART","display":"Participation"}],"text":"Participation"}],"individual":{"reference":"Practitioner/edVgNmZO8PsofzicgHOR39A3","display":"Physician Family Medicine, MD"}}],"period":{"start":"2024-07-18","end":"2024-07-18"},"location":[{"location":{"reference":"Location/egnBK0Ig3skDr18WOCQSZCZfalx17.ZzHrLRV1zFCRhY3","display":"SRC Haelen Infectious Disease Orchard at 330 Orchard Street Suite 116"}}]},
			"request": {
				"method": "PUT",
				"url": "Encounter/eJLoNtVFzxi-c-g3dv7ZzZQ3"
			}
		},
		{
			"resource": {"resourceType":"Encounter","id":"eZLXBFAb8YLKl.BM2HCmdqg3","identifier":[{"use":"usual","system":"urn:oid:1.2.840.114350.1.13.301.3.7.3.698084.8","value":"80437007"}],"status":"in-progress","class":{"system":"urn:oid:1.2.840.114350.1.72.1.7.7.10.696784.13260","code":"13","display":"Support OP Encounter"},"type":[{"coding":[{"system":"urn:oid:1.2.840.114350.1.13.301.3.7.10.698084.30","code":"101","display":"Office Visit"}],"text":"Office Visit"}],"subject":{"reference":"Patient/eOTWcfBK0B.0nnWNAZ-rrxA3","display":"Zzzunexp, NegAmbNine"},"participant":[{"type":[{"coding":[{"system":"http://terminology.hl7.org/CodeSystem/v3-ParticipationType","code":"PART","display":"Participation"}],"text":"Participation"}],"individual":{"reference":"Practitioner/edVgNmZO8PsofzicgHOR39A3","display":"Physician Family Medicine, MD"}}],"period":{"start":"2024-07-16","end":"2024-07-16"},"location":[{"location":{"reference":"Location/egnBK0Ig3skDr18WOCQSZCZfalx17.ZzHrLRV1zFCRhY3","display":"SRC Haelen Infectious Disease Orchard at 330 Orchard Street Suite 116"}}]},
			"request": {
				"method": "PUT",
				"url": "Encounter/eZLXBFAb8YLKl.BM2HCmdqg3"
			}
		},
		{
			"resource": {"resourceType":"Encounter","id":"eEcugtd7wd7fcahgJhVMgBQ3","identifier":[{"use":"usual","system":"urn:oid:1.2.840.114350.1.13.301.3.7.3.698084.8","value":"80436790"}],"status":"finished","class":{"system":"urn:oid:1.2.840.114350.1.72.1.7.7.10.696784.13260","code":"13","display":"Support OP Encounter"},"type":[{"coding":[{"system":"urn:oid:1.2.840.114350.1.13.301.3.7.10.698084.30","code":"111","display":"Orders Only"}],"text":"Orders Only"}],"subject":{"reference":"Patient/eOTWcfBK0B.0nnWNAZ-rrxA3","display":"Zzzunexp, NegAmbNine"},"participant":[{"type":[{"coding":[{"system":"http://terminology.hl7.org/CodeSystem/v3-ParticipationType","code":"PART","display":"Participation"}],"text":"Participation"}],"individual":{"reference":"Practitioner/edVgNmZO8PsofzicgHOR39A3","display":"Physician Family Medicine, MD"}}],"period":{"start":"2024-07-12","end":"2024-07-12"},"location":[{"location":{"reference":"Location/egnBK0Ig3skDr18WOCQSZCZfalx17.ZzHrLRV1zFCRhY3","display":"SRC Haelen Infectious Disease Orchard at 330 Orchard Street Suite 116"}}]},
			"request": {
				"method": "PUT",
				"url": "Encounter/eEcugtd7wd7fcahgJhVMgBQ3"
			}
		},
		{
			"resource": {"resourceType":"Encounter","id":"eGSWczgsTXe4EPs7vdi5v2A3","identifier":[{"use":"usual","system":"urn:oid:1.2.840.114350.1.13.301.3.7.3.698084.8","value":"80436649"}],"status":"finished","class":{"system":"urn:oid:1.2.840.114350.1.72.1.7.7.10.696784.13260","code":"13","display":"Support OP Encounter"},"type":[{"coding":[{"system":"urn:oid:1.2.840.114350.1.13.301.3.7.10.698084.30","code":"101","display":"Office Visit"}],"text":"Office Visit"},{"coding":[{"system":"http://www.ama-assn.org/go/cpt","code":"99999","display":"PR NO FEE LOS"}],"text":"PR NO FEE LOS"}],"subject":{"reference":"Patient/eOTWcfBK0B.0nnWNAZ-rrxA3","display":"Zzzunexp, NegAmbNine"},"participant":[{"type":[{"text":"losAuthorizingPhysician"}],"individual":{"reference":"Practitioner/edVgNmZO8PsofzicgHOR39A3","type":"Practitioner","display":"Physician Family Medicine, MD"}},{"type":[{"coding":[{"system":"http://terminology.hl7.org/CodeSystem/v3-ParticipationType","code":"PART","display":"Participation"}],"text":"Participation"}],"individual":{"reference":"Practitioner/edVgNmZO8PsofzicgHOR39A3","display":"Physician Family Medicine, MD"}}],"period":{"start":"2024-07-11","end":"2024-07-11"},"location":[{"location":{"reference":"Location/egnBK0Ig3skDr18WOCQSZCZfalx17.ZzHrLRV1zFCRhY3","display":"SRC Haelen Infectious Disease Orchard at 330 Orchard Street Suite 116"}}]},
			"request": {
				"method": "PUT",
				"url": "Encounter/eGSWczgsTXe4EPs7vdi5v2A3"
			}
		},
		{
			"resource": {"resourceType":"Observation","id":"eWvxw7my0IZ163Pw5xmPpa-UUzLEU..qnnidH7GGFSwgBFUP6Y8tsu58Y49pgYyVN3","basedOn":[{"reference":"ServiceRequest/e6fl1miaLsGuMNKYS7xKYGDxRVT7KPRH-K4UwNooQ.eg3","display":"Urine drug screen w/no conf   (BH GH LMH YH)"}],"status":"final","category":[{"coding":[{"system":"http://terminology.hl7.org/CodeSystem/observation-category","code":"laboratory","display":"Laboratory"}],"text":"Laboratory"},{"coding":[{"system":"urn:oid:1.2.840.114350.1.13.301.3.7.10.798268.30","code":"Lab","display":"Lab"}],"text":"Lab"}],"code":{"coding":[{"system":"http://loinc.org","code":"19261-7","display":"Amphetamines [Presence] in Urine by Screen method"},{"system":"urn:oid:1.2.840.114350.1.13.301.3.7.5.737384.234","code":"11864"},{"system":"urn:oid:1.2.840.114350.1.13.301.3.7.2.768282","code":"11864","display":"Amphetamine Screen, Urine, No Conf."}],"text":"Amphetamine Screen, Urine, No Conf."},"subject":{"reference":"Patient/eOTWcfBK0B.0nnWNAZ-rrxA3","display":"Zzzunexp, NegAmbNine"},"encounter":{"reference":"Encounter/eEcugtd7wd7fcahgJhVMgBQ3","identifier":{"use":"usual","system":"urn:oid:1.2.840.114350.1.13.301.3.7.3.698084.8","value":"80436790"},"display":"Orders Only"},"effectiveDateTime":"2024-07-12T18:32:00Z","issued":"2024-07-12T18:33:25Z","valueString":"Negative","specimen":{"reference":"Specimen/egTW.l0ZWPbm95bn8kEpZPA3","display":"Specimen 24Y-194CH0001"},"referenceRange":[{"text":"Negative"}]},
			"request": {
				"method": "PUT",
				"url": "Observation/eWvxw7my0IZ163Pw5xmPpa-UUzLEU..qnnidH7GGFSwgBFUP6Y8tsu58Y49pgYyVN3"
			}
		},
		{
			"resource": {"resourceType":"Observation","id":"eWvxw7my0IZ163Pw5xmPpa-UUzLEU..qnnidH7GGFSwivM-pfKa9rnqz1fdpwZiWE3","basedOn":[{"reference":"ServiceRequest/e6fl1miaLsGuMNKYS7xKYGDxRVT7KPRH-K4UwNooQ.eg3","display":"Urine drug screen w/no conf   (BH GH LMH YH)"}],"status":"final","category":[{"coding":[{"system":"http://terminology.hl7.org/CodeSystem/observation-category","code":"laboratory","display":"Laboratory"}],"text":"Laboratory"},{"coding":[{"system":"urn:oid:1.2.840.114350.1.13.301.3.7.10.798268.30","code":"Lab","display":"Lab"}],"text":"Lab"}],"code":{"coding":[{"system":"http://loinc.org","code":"19270-8","display":"Barbiturates [Presence] in Urine by Screen method"},{"system":"urn:oid:1.2.840.114350.1.13.301.3.7.5.737384.234","code":"12133"},{"system":"urn:oid:1.2.840.114350.1.13.301.3.7.2.768282","code":"12133","display":"Barbiturate Screen, Urine, No Conf."}],"text":"Barbiturate Screen, Urine, No Conf."},"subject":{"reference":"Patient/eOTWcfBK0B.0nnWNAZ-rrxA3","display":"Zzzunexp, NegAmbNine"},"encounter":{"reference":"Encounter/eEcugtd7wd7fcahgJhVMgBQ3","identifier":{"use":"usual","system":"urn:oid:1.2.840.114350.1.13.301.3.7.3.698084.8","value":"80436790"},"display":"Orders Only"},"effectiveDateTime":"2024-07-12T18:32:00Z","issued":"2024-07-12T18:33:25Z","valueString":"Negative","specimen":{"reference":"Specimen/egTW.l0ZWPbm95bn8kEpZPA3","display":"Specimen 24Y-194CH0001"},"referenceRange":[{"text":"Negative"}]},
			"request": {
				"method": "PUT",
				"url": "Observation/eWvxw7my0IZ163Pw5xmPpa-UUzLEU..qnnidH7GGFSwivM-pfKa9rnqz1fdpwZiWE3"
			}
		},
		{
			"resource": {"resourceType":"Observation","id":"eWvxw7my0IZ163Pw5xmPpa-UUzLEU..qnnidH7GGFSwgbxmZk-ftmmhJZVKzAW0333","basedOn":[{"reference":"ServiceRequest/e6fl1miaLsGuMNKYS7xKYGDxRVT7KPRH-K4UwNooQ.eg3","display":"Urine drug screen w/no conf   (BH GH LMH YH)"}],"status":"final","category":[{"coding":[{"system":"http://terminology.hl7.org/CodeSystem/observation-category","code":"laboratory","display":"Laboratory"}],"text":"Laboratory"},{"coding":[{"system":"urn:oid:1.2.840.114350.1.13.301.3.7.10.798268.30","code":"Lab","display":"Lab"}],"text":"Lab"}],"code":{"coding":[{"system":"http://loinc.org","code":"14316-4","display":"Benzodiazepines [Presence] in Urine by Screen method"},{"system":"urn:oid:1.2.840.114350.1.13.301.3.7.5.737384.234","code":"12193"},{"system":"urn:oid:1.2.840.114350.1.13.301.3.7.2.768282","code":"12193","display":"Benzodiazepines Screen, Urine, No Conf."}],"text":"Benzodiazepines Screen, Urine, No Conf."},"subject":{"reference":"Patient/eOTWcfBK0B.0nnWNAZ-rrxA3","display":"Zzzunexp, NegAmbNine"},"encounter":{"reference":"Encounter/eEcugtd7wd7fcahgJhVMgBQ3","identifier":{"use":"usual","system":"urn:oid:1.2.840.114350.1.13.301.3.7.3.698084.8","value":"80436790"},"display":"Orders Only"},"effectiveDateTime":"2024-07-12T18:32:00Z","issued":"2024-07-12T18:33:25Z","valueString":"Negative","specimen":{"reference":"Specimen/egTW.l0ZWPbm95bn8kEpZPA3","display":"Specimen 24Y-194CH0001"},"referenceRange":[{"text":"Negative"}]},
			"request": {
				"method": "PUT",
				"url": "Observation/eWvxw7my0IZ163Pw5xmPpa-UUzLEU..qnnidH7GGFSwgbxmZk-ftmmhJZVKzAW0333"
			}
		},
		{
			"resource": {"resourceType":"Observation","id":"eWvxw7my0IZ163Pw5xmPpa-UUzLEU..qnnidH7GGFSwhYsmpt81oCNYrZhWsQV90R3","basedOn":[{"reference":"ServiceRequest/e6fl1miaLsGuMNKYS7xKYGDxRVT7KPRH-K4UwNooQ.eg3","display":"Urine drug screen w/no conf   (BH GH LMH YH)"}],"status":"final","category":[{"coding":[{"system":"http://terminology.hl7.org/CodeSystem/observation-category","code":"laboratory","display":"Laboratory"}],"text":"Laboratory"},{"coding":[{"system":"urn:oid:1.2.840.114350.1.13.301.3.7.10.798268.30","code":"Lab","display":"Lab"}],"text":"Lab"}],"code":{"coding":[{"system":"http://loinc.org","code":"18282-4","display":"Cannabinoids [Presence] in Urine by Screen method"},{"system":"urn:oid:1.2.840.114350.1.13.301.3.7.5.737384.234","code":"12485"},{"system":"urn:oid:1.2.840.114350.1.13.301.3.7.2.768282","code":"12485","display":"Cannabinoids Screen, Urine, No Conf."}],"text":"Cannabinoids Screen, Urine, No Conf."},"subject":{"reference":"Patient/eOTWcfBK0B.0nnWNAZ-rrxA3","display":"Zzzunexp, NegAmbNine"},"encounter":{"reference":"Encounter/eEcugtd7wd7fcahgJhVMgBQ3","identifier":{"use":"usual","system":"urn:oid:1.2.840.114350.1.13.301.3.7.3.698084.8","value":"80436790"},"display":"Orders Only"},"effectiveDateTime":"2024-07-12T18:32:00Z","issued":"2024-07-12T18:33:25Z","valueString":"Negative","specimen":{"reference":"Specimen/egTW.l0ZWPbm95bn8kEpZPA3","display":"Specimen 24Y-194CH0001"},"referenceRange":[{"text":"Negative"}]},
			"request": {
				"method": "PUT",
				"url": "Observation/eWvxw7my0IZ163Pw5xmPpa-UUzLEU..qnnidH7GGFSwhYsmpt81oCNYrZhWsQV90R3"
			}
		},
		{
			"resource": {"resourceType":"Observation","id":"eWvxw7my0IZ163Pw5xmPpa-UUzLEU..qnnidH7GGFSwi0weKqFzhb6KwBsWwlqRxv3","basedOn":[{"reference":"ServiceRequest/e6fl1miaLsGuMNKYS7xKYGDxRVT7KPRH-K4UwNooQ.eg3","display":"Urine drug screen w/no conf   (BH GH LMH YH)"}],"status":"final","category":[{"coding":[{"system":"http://terminology.hl7.org/CodeSystem/observation-category","code":"laboratory","display":"Laboratory"}],"text":"Laboratory"},{"coding":[{"system":"urn:oid:1.2.840.114350.1.13.301.3.7.10.798268.30","code":"Lab","display":"Lab"}],"text":"Lab"}],"code":{"coding":[{"system":"http://loinc.org","code":"14314-9","display":"Benzoylecgonine [Presence] in Urine by Screen method"},{"system":"urn:oid:1.2.840.114350.1.13.301.3.7.5.737384.234","code":"12792"},{"system":"urn:oid:1.2.840.114350.1.13.301.3.7.2.768282","code":"12792","display":"Cocaine Screen, Urine, No Conf."}],"text":"Cocaine Screen, Urine, No Conf."},"subject":{"reference":"Patient/eOTWcfBK0B.0nnWNAZ-rrxA3","display":"Zzzunexp, NegAmbNine"},"encounter":{"reference":"Encounter/eEcugtd7wd7fcahgJhVMgBQ3","identifier":{"use":"usual","system":"urn:oid:1.2.840.114350.1.13.301.3.7.3.698084.8","value":"80436790"},"display":"Orders Only"},"effectiveDateTime":"2024-07-12T18:32:00Z","issued":"2024-07-12T18:33:25Z","valueString":"Negative","specimen":{"reference":"Specimen/egTW.l0ZWPbm95bn8kEpZPA3","display":"Specimen 24Y-194CH0001"},"referenceRange":[{"text":"Negative"}]},
			"request": {
				"method": "PUT",
				"url": "Observation/eWvxw7my0IZ163Pw5xmPpa-UUzLEU..qnnidH7GGFSwi0weKqFzhb6KwBsWwlqRxv3"
			}
		},
		{
			"resource": {"resourceType":"Observation","id":"ecpBws9ufGV6LLSMlP2K0.1hJJ-Tkgck9wzA2XIMz1Wmgupf5mab.kOWjLYdzyvJs3","basedOn":[{"reference":"ServiceRequest/ebZrKqvFcxEzebgKxt7ZvkzkaUBvsJAVCdaE2HX.4em03","display":"Fentanyl, urine, with no confirmation (BH GH L LMW YH)"}],"status":"final","category":[{"coding":[{"system":"http://terminology.hl7.org/CodeSystem/observation-category","code":"laboratory","display":"Laboratory"}],"text":"Laboratory"},{"coding":[{"system":"urn:oid:1.2.840.114350.1.13.301.3.7.10.798268.30","code":"Lab","display":"Lab"}],"text":"Lab"}],"code":{"coding":[{"system":"urn:oid:1.2.840.114350.1.13.301.3.7.5.737384.234","code":"13266"},{"system":"urn:oid:1.2.840.114350.1.13.301.3.7.2.768282","code":"13266","display":"Drugs Of Abuse Note"}],"text":"Drugs Of Abuse Note"},"subject":{"reference":"Patient/eOTWcfBK0B.0nnWNAZ-rrxA3","display":"Zzzunexp, NegAmbNine"},"encounter":{"reference":"Encounter/eEcugtd7wd7fcahgJhVMgBQ3","identifier":{"use":"usual","system":"urn:oid:1.2.840.114350.1.13.301.3.7.3.698084.8","value":"80436790"},"display":"Orders Only"},"effectiveDateTime":"2024-07-12T18:32:00Z","issued":"2024-07-12T18:33:30Z","dataAbsentReason":{"coding":[{"system":"http://terminology.hl7.org/CodeSystem/data-absent-reason","code":"unknown","display":"Unknown"}],"text":"No value exists"},"note":[{"text":"Formal chain of custody documentation not maintained on \r\nclinical specimens. Results are intended for medical \r\nmanagement purposes only. "}],"specimen":{"reference":"Specimen/egTW.l0ZWPbm95bn8kEpZPA3","display":"Specimen 24Y-194CH0001"}},
			"request": {
				"method": "PUT",
				"url": "Observation/ecpBws9ufGV6LLSMlP2K0.1hJJ-Tkgck9wzA2XIMz1Wmgupf5mab.kOWjLYdzyvJs3"
			}
		},
		{
			"resource": {"resourceType":"Observation","id":"eWvxw7my0IZ163Pw5xmPpa-UUzLEU..qnnidH7GGFSwhDnUxzndIGlMmMxTuOnWUE3","basedOn":[{"reference":"ServiceRequest/e6fl1miaLsGuMNKYS7xKYGDxRVT7KPRH-K4UwNooQ.eg3","display":"Urine drug screen w/no conf   (BH GH LMH YH)"}],"status":"final","category":[{"coding":[{"system":"http://terminology.hl7.org/CodeSystem/observation-category","code":"laboratory","display":"Laboratory"}],"text":"Laboratory"},{"coding":[{"system":"urn:oid:1.2.840.114350.1.13.301.3.7.10.798268.30","code":"Lab","display":"Lab"}],"text":"Lab"}],"code":{"coding":[{"system":"http://loinc.org","code":"19295-5","display":"Opiates [Presence] in Urine by Screen method"},{"system":"urn:oid:1.2.840.114350.1.13.301.3.7.5.737384.234","code":"15285"},{"system":"urn:oid:1.2.840.114350.1.13.301.3.7.2.768282","code":"15285","display":"Opiates Screen, Urine, No Conf."}],"text":"Opiates Screen, Urine, No Conf."},"subject":{"reference":"Patient/eOTWcfBK0B.0nnWNAZ-rrxA3","display":"Zzzunexp, NegAmbNine"},"encounter":{"reference":"Encounter/eEcugtd7wd7fcahgJhVMgBQ3","identifier":{"use":"usual","system":"urn:oid:1.2.840.114350.1.13.301.3.7.3.698084.8","value":"80436790"},"display":"Orders Only"},"effectiveDateTime":"2024-07-12T18:32:00Z","issued":"2024-07-12T18:33:25Z","valueString":"Negative","specimen":{"reference":"Specimen/egTW.l0ZWPbm95bn8kEpZPA3","display":"Specimen 24Y-194CH0001"},"referenceRange":[{"text":"Negative"}]},
			"request": {
				"method": "PUT",
				"url": "Observation/eWvxw7my0IZ163Pw5xmPpa-UUzLEU..qnnidH7GGFSwhDnUxzndIGlMmMxTuOnWUE3"
			}
		},
		{
			"resource": {"resourceType":"Observation","id":"eWvxw7my0IZ163Pw5xmPpa-UUzLEU..qnnidH7GGFSwiDLE.z3v4LQigq5clcvWWS3","basedOn":[{"reference":"ServiceRequest/e6fl1miaLsGuMNKYS7xKYGDxRVT7KPRH-K4UwNooQ.eg3","display":"Urine drug screen w/no conf   (BH GH LMH YH)"}],"status":"final","category":[{"coding":[{"system":"http://terminology.hl7.org/CodeSystem/observation-category","code":"laboratory","display":"Laboratory"}],"text":"Laboratory"},{"coding":[{"system":"urn:oid:1.2.840.114350.1.13.301.3.7.10.798268.30","code":"Lab","display":"Lab"}],"text":"Lab"}],"code":{"coding":[{"system":"http://loinc.org","code":"19642-8","display":"oxyCODONE [Presence] in Urine by Screen method"},{"system":"urn:oid:1.2.840.114350.1.13.301.3.7.5.737384.234","code":"15357"},{"system":"urn:oid:1.2.840.114350.1.13.301.3.7.2.768282","code":"15357","display":"Oxycodone Screen, Urine, No Conf."}],"text":"Oxycodone Screen, Urine, No Conf."},"subject":{"reference":"Patient/eOTWcfBK0B.0nnWNAZ-rrxA3","display":"Zzzunexp, NegAmbNine"},"encounter":{"reference":"Encounter/eEcugtd7wd7fcahgJhVMgBQ3","identifier":{"use":"usual","system":"urn:oid:1.2.840.114350.1.13.301.3.7.3.698084.8","value":"80436790"},"display":"Orders Only"},"effectiveDateTime":"2024-07-12T18:32:00Z","issued":"2024-07-12T18:33:25Z","valueString":"Negative","specimen":{"reference":"Specimen/egTW.l0ZWPbm95bn8kEpZPA3","display":"Specimen 24Y-194CH0001"},"referenceRange":[{"text":"Negative"}]},
			"request": {
				"method": "PUT",
				"url": "Observation/eWvxw7my0IZ163Pw5xmPpa-UUzLEU..qnnidH7GGFSwiDLE.z3v4LQigq5clcvWWS3"
			}
		},
		{
			"resource": {"resourceType":"Observation","id":"eWvxw7my0IZ163Pw5xmPpa-UUzLEU..qnnidH7GGFSwiqSbA5UXpffkwHq-KI.scU3","basedOn":[{"reference":"ServiceRequest/e6fl1miaLsGuMNKYS7xKYGDxRVT7KPRH-K4UwNooQ.eg3","display":"Urine drug screen w/no conf   (BH GH LMH YH)"}],"status":"final","category":[{"coding":[{"system":"http://terminology.hl7.org/CodeSystem/observation-category","code":"laboratory","display":"Laboratory"}],"text":"Laboratory"},{"coding":[{"system":"urn:oid:1.2.840.114350.1.13.301.3.7.10.798268.30","code":"Lab","display":"Lab"}],"text":"Lab"}],"code":{"coding":[{"system":"http://loinc.org","code":"14310-7","display":"Phencyclidine [Presence] in Urine by Screen method >25 ng/mL"},{"system":"urn:oid:1.2.840.114350.1.13.301.3.7.5.737384.234","code":"15557"},{"system":"urn:oid:1.2.840.114350.1.13.301.3.7.2.768282","code":"15557","display":"Phencyclidine (PCP) Screen, Urine, No Conf."}],"text":"Phencyclidine (PCP) Screen, Urine, No Conf."},"subject":{"reference":"Patient/eOTWcfBK0B.0nnWNAZ-rrxA3","display":"Zzzunexp, NegAmbNine"},"encounter":{"reference":"Encounter/eEcugtd7wd7fcahgJhVMgBQ3","identifier":{"use":"usual","system":"urn:oid:1.2.840.114350.1.13.301.3.7.3.698084.8","value":"80436790"},"display":"Orders Only"},"effectiveDateTime":"2024-07-12T18:32:00Z","issued":"2024-07-12T18:33:25Z","valueString":"Negative","specimen":{"reference":"Specimen/egTW.l0ZWPbm95bn8kEpZPA3","display":"Specimen 24Y-194CH0001"},"referenceRange":[{"text":"Negative"}]},
			"request": {
				"method": "PUT",
				"url": "Observation/eWvxw7my0IZ163Pw5xmPpa-UUzLEU..qnnidH7GGFSwiqSbA5UXpffkwHq-KI.scU3"
			}
		},
		{
			"resource": {"resourceType":"Observation","id":"eWvxw7my0IZ163Pw5xmPpa-UUzLEU..qnnidH7GGFSwj37S3tU2u4gVxbkF.5.gOb3","basedOn":[{"reference":"ServiceRequest/e6fl1miaLsGuMNKYS7xKYGDxRVT7KPRH-K4UwNooQ.eg3","display":"Urine drug screen w/no conf   (BH GH LMH YH)"}],"status":"final","category":[{"coding":[{"system":"http://terminology.hl7.org/CodeSystem/observation-category","code":"laboratory","display":"Laboratory"}],"text":"Laboratory"},{"coding":[{"system":"urn:oid:1.2.840.114350.1.13.301.3.7.10.798268.30","code":"Lab","display":"Lab"}],"text":"Lab"}],"code":{"coding":[{"system":"urn:oid:1.2.840.114350.1.13.301.3.7.5.737384.234","code":"18822"},{"system":"urn:oid:1.2.840.114350.1.13.301.3.7.2.768282","code":"18822","display":"Methadone Metabolite Screen, Urine, No Conf."}],"text":"Methadone Metabolite Screen, Urine, No Conf."},"subject":{"reference":"Patient/eOTWcfBK0B.0nnWNAZ-rrxA3","display":"Zzzunexp, NegAmbNine"},"encounter":{"reference":"Encounter/eEcugtd7wd7fcahgJhVMgBQ3","identifier":{"use":"usual","system":"urn:oid:1.2.840.114350.1.13.301.3.7.3.698084.8","value":"80436790"},"display":"Orders Only"},"effectiveDateTime":"2024-07-12T18:32:00Z","issued":"2024-07-12T18:33:25Z","valueString":"Negative","specimen":{"reference":"Specimen/egTW.l0ZWPbm95bn8kEpZPA3","display":"Specimen 24Y-194CH0001"},"referenceRange":[{"text":"Negative"}]},
			"request": {
				"method": "PUT",
				"url": "Observation/eWvxw7my0IZ163Pw5xmPpa-UUzLEU..qnnidH7GGFSwj37S3tU2u4gVxbkF.5.gOb3"
			}
		},
		{
			"resource": {"resourceType":"Observation","id":"ecpBws9ufGV6LLSMlP2K0.wJReWDZmyDlA4UHQENfXkv3St0KKlYJ025cWKIEXTgv3","basedOn":[{"reference":"ServiceRequest/ebZrKqvFcxEzebgKxt7ZvkzkaUBvsJAVCdaE2HX.4em03","display":"Fentanyl, urine, with no confirmation (BH GH L LMW YH)"}],"status":"final","category":[{"coding":[{"system":"http://terminology.hl7.org/CodeSystem/observation-category","code":"laboratory","display":"Laboratory"}],"text":"Laboratory"},{"coding":[{"system":"urn:oid:1.2.840.114350.1.13.301.3.7.10.798268.30","code":"Lab","display":"Lab"}],"text":"Lab"}],"code":{"coding":[{"system":"http://loinc.org","code":"59673-4","display":"fentaNYL [Presence] in Urine by Screen method"},{"system":"urn:oid:1.2.840.114350.1.13.301.3.7.5.737384.234","code":"29199"},{"system":"urn:oid:1.2.840.114350.1.13.301.3.7.2.768282","code":"29199","display":"Fentanyl Screen, Urine"}],"text":"Fentanyl Screen, Urine"},"subject":{"reference":"Patient/eOTWcfBK0B.0nnWNAZ-rrxA3","display":"Zzzunexp, NegAmbNine"},"encounter":{"reference":"Encounter/eEcugtd7wd7fcahgJhVMgBQ3","identifier":{"use":"usual","system":"urn:oid:1.2.840.114350.1.13.301.3.7.3.698084.8","value":"80436790"},"display":"Orders Only"},"effectiveDateTime":"2024-07-12T18:32:00Z","issued":"2024-07-12T18:33:30Z","valueString":"Negative","note":[{"text":"This immunoassay is reported as negative if the reactivity is below that of a 5 ng/mL calibrator. "}],"specimen":{"reference":"Specimen/egTW.l0ZWPbm95bn8kEpZPA3","display":"Specimen 24Y-194CH0001"},"referenceRange":[{"text":"Negative"}]},
			"request": {
				"method": "PUT",
				"url": "Observation/ecpBws9ufGV6LLSMlP2K0.wJReWDZmyDlA4UHQENfXkv3St0KKlYJ025cWKIEXTgv3"
			}
		},
		{
			"resource": {"resourceType":"Observation","id":"eWvxw7my0IZ163Pw5xmPpa3rjsd5iHZMNzXq8zQzX3LxyRw.0hOmriQ1THrZgoO5Y3","basedOn":[{"reference":"ServiceRequest/e6fl1miaLsGuMNKYS7xKYGDxRVT7KPRH-K4UwNooQ.eg3","display":"Urine drug screen w/no conf   (BH GH LMH YH)"}],"status":"final","category":[{"coding":[{"system":"http://terminology.hl7.org/CodeSystem/observation-category","code":"laboratory","display":"Laboratory"}],"text":"Laboratory"},{"coding":[{"system":"urn:oid:1.2.840.114350.1.13.301.3.7.10.798268.30","code":"Lab","display":"Lab"}],"text":"Lab"}],"code":{"coding":[{"system":"urn:oid:1.2.840.114350.1.13.301.3.7.5.737384.234","code":"29528"},{"system":"urn:oid:1.2.840.114350.1.13.301.3.7.2.768282","code":"29528","display":"Drugs Of Abuse Note"}],"text":"Drugs Of Abuse Note"},"subject":{"reference":"Patient/eOTWcfBK0B.0nnWNAZ-rrxA3","display":"Zzzunexp, NegAmbNine"},"encounter":{"reference":"Encounter/eEcugtd7wd7fcahgJhVMgBQ3","identifier":{"use":"usual","system":"urn:oid:1.2.840.114350.1.13.301.3.7.3.698084.8","value":"80436790"},"display":"Orders Only"},"effectiveDateTime":"2024-07-12T18:32:00Z","issued":"2024-07-12T18:33:25Z","valueString":"See Comment","note":[{"text":"Drugs of Abuse Note:\r\n- These screening cutoffs are for medical/treatment/clinical purposes only.\r\n- For all non-medical purposes, samples should be referred for confirmatory testing\r\n- The concentration value must be greater than or equal to the cutoff to be reported as positive, and less than the cutoff to be reported as negative.\r\n- Follow-up confirmation testing by mass spectrometry is recommended for unexpected results.\r\n- Interpretive questions should be directed to the laboratory.\r\n- This test was performed in a CLIA certified laboratory.\r\n\r\nAnalyte                            Cutoff (ng/mL) \r\nAmphetamine                        1000 \r\nBarbiturate                        200 \r\nBenzodiazepine                     200 \r\nCannabinoids                       50 \r\nCocaine                            300 \r\nMethadone/Methadone Metabolite*    100 \r\nOpiates                            300 \r\nOxycodone                          100 \r\nPhencyclidine (PCP)                25\r\n\r\n* At BH-MC, GH, and LMH the screening cutoff for Methadone is 300 ng/mL."}],"specimen":{"reference":"Specimen/egTW.l0ZWPbm95bn8kEpZPA3","display":"Specimen 24Y-194CH0001"}},
			"request": {
				"method": "PUT",
				"url": "Observation/eWvxw7my0IZ163Pw5xmPpa3rjsd5iHZMNzXq8zQzX3LxyRw.0hOmriQ1THrZgoO5Y3"
			}
		},
		{
			"resource": {"resourceType":"Medication","id":"eNRH.0i4FewMpi87mxShENw3","identifier":[{"use":"usual","system":"urn:oid:1.2.840.114350.1.13.301.3.7.2.698288","value":"173935"}],"code":{"coding":[{"system":"http://www.whocc.no/atc","code":"N02AA05"},{"system":"urn:oid:2.16.840.1.113883.6.208","code":"72868"},{"system":"http://www.nlm.nih.gov/research/umls/rxnorm","code":"7804"},{"system":"http://www.nlm.nih.gov/research/umls/rxnorm","code":"82063"},{"system":"http://www.nlm.nih.gov/research/umls/rxnorm","code":"159821"},{"system":"http://www.nlm.nih.gov/research/umls/rxnorm","code":"1860148"},{"system":"http://www.nlm.nih.gov/research/umls/rxnorm","code":"218129"},{"system":"http://www.nlm.nih.gov/research/umls/rxnorm","code":"218986"},{"system":"http://www.nlm.nih.gov/research/umls/rxnorm","code":"218987"},{"system":"http://www.nlm.nih.gov/research/umls/rxnorm","code":"219160"},{"system":"http://www.nlm.nih.gov/research/umls/rxnorm","code":"219740"},{"system":"http://www.nlm.nih.gov/research/umls/rxnorm","code":"352858"},{"system":"http://www.nlm.nih.gov/research/umls/rxnorm","code":"541043"},{"system":"http://www.nlm.nih.gov/research/umls/rxnorm","code":"541047"},{"system":"http://www.nlm.nih.gov/research/umls/rxnorm","code":"602169"},{"system":"http://www.nlm.nih.gov/research/umls/rxnorm","code":"607620"},{"system":"http://www.nlm.nih.gov/research/umls/rxnorm","code":"790841"},{"system":"http://www.nlm.nih.gov/research/umls/rxnorm","code":"1113310"},{"system":"http://www.nlm.nih.gov/research/umls/rxnorm","code":"1664443"},{"system":"http://www.nlm.nih.gov/research/umls/rxnorm","code":"1944530"},{"system":"http://www.nlm.nih.gov/research/umls/rxnorm","code":"1049601"}],"text":"oxyCODONE (OxyCONTIN) 12 hr tablet"},"form":{"coding":[{"system":"urn:oid:1.2.840.114350.1.13.301.3.7.4.698288.310","code":"TR12","display":"tablet,oral only,ext.rel.12 hr"}],"text":"tablet,oral only,ext.rel.12 hr"},"ingredient":[{"itemCodeableConcept":{"coding":[{"system":"http://www.whocc.no/atc","code":"N02AA05"},{"system":"urn:oid:2.16.840.1.113883.6.208","code":"72868"},{"system":"http://www.nlm.nih.gov/research/umls/rxnorm","code":"7804"},{"system":"http://www.nlm.nih.gov/research/umls/rxnorm","code":"82063"},{"system":"http://www.nlm.nih.gov/research/umls/rxnorm","code":"159821"},{"system":"http://www.nlm.nih.gov/research/umls/rxnorm","code":"1860148"},{"system":"http://www.nlm.nih.gov/research/umls/rxnorm","code":"218129"},{"system":"http://www.nlm.nih.gov/research/umls/rxnorm","code":"218986"},{"system":"http://www.nlm.nih.gov/research/umls/rxnorm","code":"218987"},{"system":"http://www.nlm.nih.gov/research/umls/rxnorm","code":"219160"},{"system":"http://www.nlm.nih.gov/research/umls/rxnorm","code":"219740"},{"system":"http://www.nlm.nih.gov/research/umls/rxnorm","code":"352858"},{"system":"http://www.nlm.nih.gov/research/umls/rxnorm","code":"541043"},{"system":"http://www.nlm.nih.gov/research/umls/rxnorm","code":"541047"},{"system":"http://www.nlm.nih.gov/research/umls/rxnorm","code":"602169"},{"system":"http://www.nlm.nih.gov/research/umls/rxnorm","code":"607620"},{"system":"http://www.nlm.nih.gov/research/umls/rxnorm","code":"790841"},{"system":"http://www.nlm.nih.gov/research/umls/rxnorm","code":"1113310"},{"system":"http://www.nlm.nih.gov/research/umls/rxnorm","code":"1664443"},{"system":"http://www.nlm.nih.gov/research/umls/rxnorm","code":"1944530"},{"system":"http://www.nlm.nih.gov/research/umls/rxnorm","code":"1049601"}],"text":"oxyCODONE (OxyCONTIN) 12 hr tablet"},"strength":{"numerator":{"value":80,"unit":"mg","system":"http://unitsofmeasure.org","code":"mg"},"denominator":{"value":80,"unit":"mg","system":"http://unitsofmeasure.org","code":"mg"}}}]},
			"request": {
				"method": "PUT",
				"url": "Medication/eNRH.0i4FewMpi87mxShENw3"
			}
		}
	]
}
