{
	"resourceType": "Bundle",
	"id": "Exm104MeasureAdditionalData",
	"type": "collection",
	"entry": [
		{
			"resource": {
				"resourceType": "MeasureReport",
				"id": "measurereport-denom-EXM104",
				"contained": [ {
					"resourceType": "Bundle",
					"id": "4e9ea2cf-bdfc-460f-b7a0-49f70201e177",
					"type": "collection",
					"entry": [ {
						"fullUrl": "1a19a371-91b8-4a1d-9bb0-e8a997baa655",
						"resource": {
							"resourceType": "List",
							"id": "1a19a371-91b8-4a1d-9bb0-e8a997baa655",
							"title": "denominator",
							"entry": [ {
								"item": {
									"reference": "denom-EXM104"
								}
							}, {
								"item": {
									"reference": "denom-EXM104-2"
								}
							}, {
								"item": {
									"reference": "denom-EXM104-1"
								}
							} ]
						}
					}, {
						"fullUrl": "Patient/denom-EXM104",
						"resource": {
							"resourceType": "Patient",
							"id": "denom-EXM104",
							"meta": {
								"profile": [ "http://hl7.org/fhir/us/core/StructureDefinition/us-core-patient" ]
							},
							"extension": [ {
								"url": "http://hl7.org/fhir/us/core/StructureDefinition/us-core-race",
								"extension": [ {
									"url": "ombCategory",
									"valueCoding": {
										"system": "urn:oid:2.16.840.1.113883.6.238",
										"code": "2054-5",
										"display": "Black or African American"
									}
								} ]
							}, {
								"url": "http://hl7.org/fhir/us/core/StructureDefinition/us-core-ethnicity",
								"extension": [ {
									"url": "ombCategory",
									"valueCoding": {
										"system": "urn:oid:2.16.840.1.113883.6.238",
										"code": "2135-2",
										"display": "Hispanic or Latino"
									}
								} ]
							} ],
							"identifier": [ {
								"use": "usual",
								"type": {
									"coding": [ {
										"system": "http://terminology.hl7.org/CodeSystem/v2-0203",
										"code": "MR",
										"display": "Medical Record Number"
									} ]
								},
								"system": "http://hospital.smarthealthit.org",
								"value": "9999999910"
							} ],
							"name": [ {
								"family": "Jones",
								"given": [ "Rick" ]
							} ],
							"gender": "male",
							"birthDate": "1955-11-05"
						}
					}, {
						"fullUrl": "c247b95f-44a0-4ba4-af88-29419f6454af",
						"resource": {
							"resourceType": "List",
							"id": "c247b95f-44a0-4ba4-af88-29419f6454af",
							"title": "initial-population",
							"entry": [ {
								"item": {
									"reference": "denom-EXM104"
								}
							}, {
								"item": {
									"reference": "denom-EXM104-2"
								}
							}, {
								"item": {
									"reference": "denom-EXM104-1"
								}
							} ]
						}
					}, {
						"fullUrl": "Encounter/denom-EXM104-2",
						"resource": {
							"resourceType": "Encounter",
							"id": "denom-EXM104-2",
							"meta": {
								"profile": [ "http://hl7.org/fhir/us/core/StructureDefinition/us-core-encounter" ]
							},
							"status": "finished",
							"class": {
								"system": "http://terminology.hl7.org/CodeSystem/v3-ActCode",
								"code": "IMP",
								"display": "inpatient encounter"
							},
							"type": [ {
								"coding": [ {
									"system": "http://snomed.info/sct",
									"code": "32485007",
									"display": "Hospital admission (procedure)"
								} ]
							} ],
							"subject": {
								"reference": "Patient/denom-EXM104"
							},
							"period": {
								"start": "2019-08-21T00:00:00-06:00",
								"end": "2019-12-19T08:15:00-07:00"
							},
							"diagnosis": [ {
								"condition": {
									"reference": "Condition/denom-EXM104-1"
								},
								"use": {
									"coding": [ {
										"system": "http://hl7.org/fhir/diagnosis-role",
										"code": "billing",
										"display": "Billing"
									} ]
								},
								"rank": 1
							} ]
						}
					}, {
						"fullUrl": "0f7a251e-fc83-461c-8a9b-ce07bc2d067d",
						"resource": {
							"resourceType": "List",
							"id": "0f7a251e-fc83-461c-8a9b-ce07bc2d067d",
							"title": "numerator",
							"entry": [ {
								"item": {
									"reference": "denom-EXM104"
								}
							}, {
								"item": {
									"reference": "denom-EXM104-2"
								}
							}, {
								"item": {
									"reference": "denom-EXM104-1"
								}
							} ]
						}
					}, {
						"fullUrl": "Condition/denom-EXM104-1",
						"resource": {
							"resourceType": "Condition",
							"id": "denom-EXM104-1",
							"meta": {
								"profile": [ "http://hl7.org/fhir/us/core/StructureDefinition/us-core-condition" ]
							},
							"verificationStatus": {
								"coding": [ {
									"system": "http://terminology.hl7.org/CodeSystem/condition-ver-status",
									"code": "confirmed",
									"display": "Confirmed"
								} ]
							},
							"category": [ {
								"coding": [ {
									"system": "http://terminology.hl7.org/CodeSystem/condition-category",
									"code": "encounter-diagnosis",
									"display": "Encounter Diagnosis"
								} ]
							} ],
							"code": {
								"coding": [ {
									"system": "http://snomed.info/sct",
									"code": "116288000",
									"display": "Paralytic stroke (disorder)"
								} ]
							},
							"subject": {
								"reference": "Patient/denom-EXM104"
							}
						}
					} ]
				} ],
				"status": "complete",
				"type": "individual",
				"measure": "Measure/measure-EXM104-8.2.000",
				"subject": {
					"reference": "Patient/denom-EXM104"
				},
				"period": {
					"start": "2018-12-31T17:00:00-07:00",
					"end": "2019-12-30T17:00:00-07:00"
				},
				"group": [ {
					"id": "group-1",
					"population": [ {
						"code": {
							"coding": [ {
								"system": "http://terminology.hl7.org/CodeSystem/measure-population",
								"code": "initial-population",
								"display": "Initial Population"
							} ]
						},
						"count": 1
					}, {
						"code": {
							"coding": [ {
								"system": "http://terminology.hl7.org/CodeSystem/measure-population",
								"code": "numerator",
								"display": "Numerator"
							} ]
						},
						"count": 0
					}, {
						"code": {
							"coding": [ {
								"system": "http://terminology.hl7.org/CodeSystem/measure-population",
								"code": "denominator",
								"display": "Denominator"
							} ]
						},
						"count": 1
					}, {
						"code": {
							"coding": [ {
								"system": "http://terminology.hl7.org/CodeSystem/measure-population",
								"code": "denominator-exclusion",
								"display": "Denominator Exclusion"
							} ]
						},
						"count": 0
					} ],
					"measureScore": {
						"value": 0.0
					}
				} ],
				"evaluatedResource": [ {
					"reference": "#4e9ea2cf-bdfc-460f-b7a0-49f70201e177"
				} ]
			},
			"request": {
				"method": "PUT",
				"url": "MeasureReport/measurereport-denom-EXM104"
			}
		},
		{
			"resource": {
				"resourceType": "MeasureReport",
				"id": "measurereport-numer-EXM104",
				"contained": [ {
					"resourceType": "Bundle",
					"id": "74474743-2e7e-4be4-8477-1ae78c14ab16",
					"type": "collection",
					"entry": [ {
						"fullUrl": "Condition/numer-EXM104-1",
						"resource": {
							"resourceType": "Condition",
							"id": "numer-EXM104-1",
							"meta": {
								"profile": [ "http://hl7.org/fhir/us/core/StructureDefinition/us-core-condition" ]
							},
							"verificationStatus": {
								"coding": [ {
									"system": "http://terminology.hl7.org/CodeSystem/condition-ver-status",
									"code": "confirmed",
									"display": "Confirmed"
								} ]
							},
							"category": [ {
								"coding": [ {
									"system": "http://terminology.hl7.org/CodeSystem/condition-category",
									"code": "encounter-diagnosis",
									"display": "Encounter Diagnosis"
								} ]
							} ],
							"code": {
								"coding": [ {
									"system": "http://snomed.info/sct",
									"code": "116288000",
									"display": "Paralytic stroke (disorder)"
								} ]
							},
							"subject": {
								"reference": "Patient/numer-EXM104"
							}
						}
					}, {
						"fullUrl": "Patient/numer-EXM104",
						"resource": {
							"resourceType": "Patient",
							"id": "numer-EXM104",
							"meta": {
								"profile": [ "http://hl7.org/fhir/us/core/StructureDefinition/us-core-patient" ]
							},
							"extension": [ {
								"url": "http://hl7.org/fhir/us/core/StructureDefinition/us-core-race",
								"extension": [ {
									"url": "ombCategory",
									"valueCoding": {
										"system": "urn:oid:2.16.840.1.113883.6.238",
										"code": "2106-3",
										"display": "White"
									}
								} ]
							}, {
								"url": "http://hl7.org/fhir/us/core/StructureDefinition/us-core-ethnicity",
								"extension": [ {
									"url": "ombCategory",
									"valueCoding": {
										"system": "urn:oid:2.16.840.1.113883.6.238",
										"code": "2186-5",
										"display": "Not Hispanic or Latino"
									}
								} ]
							} ],
							"identifier": [ {
								"use": "usual",
								"type": {
									"coding": [ {
										"system": "http://terminology.hl7.org/CodeSystem/v2-0203",
										"code": "MR",
										"display": "Medical Record Number"
									} ]
								},
								"system": "http://hospital.smarthealthit.org",
								"value": "9999999911"
							} ],
							"name": [ {
								"family": "Jones",
								"given": [ "Louise" ]
							} ],
							"gender": "female",
							"birthDate": "1971-11-21"
						}
					}, {
						"fullUrl": "963f6f2e-212c-4767-98af-ecad2d994491",
						"resource": {
							"resourceType": "List",
							"id": "963f6f2e-212c-4767-98af-ecad2d994491",
							"title": "numerator",
							"entry": [ {
								"item": {
									"reference": "numer-EXM104-1"
								}
							}, {
								"item": {
									"reference": "numer-EXM104"
								}
							}, {
								"item": {
									"reference": "numer-EXM104-5"
								}
							}, {
								"item": {
									"reference": "numer-EXM104-2"
								}
							} ]
						}
					}, {
						"fullUrl": "4f918c4c-8499-4089-be60-0d873a6da0a0",
						"resource": {
							"resourceType": "List",
							"id": "4f918c4c-8499-4089-be60-0d873a6da0a0",
							"title": "denominator",
							"entry": [ {
								"item": {
									"reference": "numer-EXM104-1"
								}
							}, {
								"item": {
									"reference": "numer-EXM104"
								}
							}, {
								"item": {
									"reference": "numer-EXM104-2"
								}
							} ]
						}
					}, {
						"fullUrl": "MedicationRequest/numer-EXM104-5",
						"resource": {
							"resourceType": "MedicationRequest",
							"id": "numer-EXM104-5",
							"meta": { },
							"status": "completed",
							"intent": "order",
							"category": [ {
								"coding": [ {
									"system": "http://terminology.hl7.org/CodeSystem/medicationrequest-category",
									"code": "discharge",
									"display": "Discharge"
								} ]
							} ],
							"medicationCodeableConcept": {
								"coding": [ {
									"system": "http://www.nlm.nih.gov/research/umls/rxnorm",
									"code": "1037045",
									"display": "dabigatran etexilate 150 MG Oral Capsule"
								} ]
							},
							"subject": {
								"reference": "Patient/numer-EXM104"
							},
							"authoredOn": "2019-12-17T08:00:00"
						}
					}, {
						"fullUrl": "Encounter/numer-EXM104-2",
						"resource": {
							"resourceType": "Encounter",
							"id": "numer-EXM104-2",
							"meta": {
								"profile": [ "http://hl7.org/fhir/us/core/StructureDefinition/us-core-encounter" ]
							},
							"status": "finished",
							"class": {
								"system": "http://terminology.hl7.org/CodeSystem/v3-ActCode",
								"code": "IMP",
								"display": "inpatient encounter"
							},
							"type": [ {
								"coding": [ {
									"system": "http://snomed.info/sct",
									"code": "32485007",
									"display": "Hospital admission (procedure)"
								} ]
							} ],
							"subject": {
								"reference": "Patient/numer-EXM104"
							},
							"period": {
								"start": "2019-08-21T00:00:00-06:00",
								"end": "2019-12-19T08:15:00-07:00"
							},
							"diagnosis": [ {
								"condition": {
									"reference": "Condition/numer-EXM104-1"
								},
								"use": {
									"coding": [ {
										"system": "http://hl7.org/fhir/diagnosis-role",
										"code": "billing",
										"display": "Billing"
									} ]
								},
								"rank": 1
							} ]
						}
					}, {
						"fullUrl": "689ed734-68bb-4379-96b9-28fd90e873a2",
						"resource": {
							"resourceType": "List",
							"id": "689ed734-68bb-4379-96b9-28fd90e873a2",
							"title": "initial-population",
							"entry": [ {
								"item": {
									"reference": "numer-EXM104-1"
								}
							}, {
								"item": {
									"reference": "numer-EXM104"
								}
							}, {
								"item": {
									"reference": "numer-EXM104-2"
								}
							} ]
						}
					} ]
				} ],
				"status": "complete",
				"type": "individual",
				"measure": "Measure/measure-EXM104-8.2.000",
				"subject": {
					"reference": "Patient/numer-EXM104"
				},
				"period": {
					"start": "2018-12-31T17:00:00-07:00",
					"end": "2019-12-30T17:00:00-07:00"
				},
				"group": [ {
					"id": "group-1",
					"population": [ {
						"code": {
							"coding": [ {
								"system": "http://terminology.hl7.org/CodeSystem/measure-population",
								"code": "initial-population",
								"display": "Initial Population"
							} ]
						},
						"count": 1
					}, {
						"code": {
							"coding": [ {
								"system": "http://terminology.hl7.org/CodeSystem/measure-population",
								"code": "numerator",
								"display": "Numerator"
							} ]
						},
						"count": 1
					}, {
						"code": {
							"coding": [ {
								"system": "http://terminology.hl7.org/CodeSystem/measure-population",
								"code": "denominator",
								"display": "Denominator"
							} ]
						},
						"count": 1
					}, {
						"code": {
							"coding": [ {
								"system": "http://terminology.hl7.org/CodeSystem/measure-population",
								"code": "denominator-exclusion",
								"display": "Denominator Exclusion"
							} ]
						},
						"count": 0
					} ],
					"measureScore": {
						"value": 1.0
					}
				} ],
				"evaluatedResource": [ {
					"reference": "#74474743-2e7e-4be4-8477-1ae78c14ab16"
				} ]
			},
			"request": {
				"method": "PUT",
				"url": "MeasureReport/measurereport-numer-EXM104"
			}
		},
		{
			"resource": {
				"resourceType": "Patient",
				"id": "numer-EXM104",
				"meta": {
					"profile": [ "http://hl7.org/fhir/us/core/StructureDefinition/us-core-patient" ]
				},
				"extension": [ {
					"url": "http://hl7.org/fhir/us/core/StructureDefinition/us-core-race",
					"extension": [ {
						"url": "ombCategory",
						"valueCoding": {
							"system": "urn:oid:2.16.840.1.113883.6.238",
							"code": "2106-3",
							"display": "White"
						}
					} ]
				}, {
					"url": "http://hl7.org/fhir/us/core/StructureDefinition/us-core-ethnicity",
					"extension": [ {
						"url": "ombCategory",
						"valueCoding": {
							"system": "urn:oid:2.16.840.1.113883.6.238",
							"code": "2186-5",
							"display": "Not Hispanic or Latino"
						}
					} ]
				} ],
				"identifier": [ {
					"use": "usual",
					"type": {
						"coding": [ {
							"system": "http://terminology.hl7.org/CodeSystem/v2-0203",
							"code": "MR",
							"display": "Medical Record Number"
						} ]
					},
					"system": "http://hospital.smarthealthit.org",
					"value": "9999999911"
				} ],
				"name": [ {
					"family": "Jones",
					"given": [ "Louise" ]
				} ],
				"gender": "female",
				"birthDate": "1971-11-21"
			},
			"request": {
				"method": "PUT",
				"url": "Patient/numer-EXM104"
			}
		},
		{
			"resource": {
				"resourceType": "Condition",
				"id": "denom-EXM104-1",
				"meta": {
					"profile": [ "http://hl7.org/fhir/us/core/StructureDefinition/us-core-condition" ]
				},
				"verificationStatus": {
					"coding": [ {
						"system": "http://terminology.hl7.org/CodeSystem/condition-ver-status",
						"code": "confirmed",
						"display": "Confirmed"
					} ]
				},
				"category": [ {
					"coding": [ {
						"system": "http://terminology.hl7.org/CodeSystem/condition-category",
						"code": "encounter-diagnosis",
						"display": "Encounter Diagnosis"
					} ]
				} ],
				"code": {
					"coding": [ {
						"system": "http://snomed.info/sct",
						"code": "116288000",
						"display": "Paralytic stroke (disorder)"
					} ]
				},
				"subject": {
					"reference": "Patient/denom-EXM104"
				}
			},
			"request": {
				"method": "PUT",
				"url": "Condition/denom-EXM104-1"
			}
		},
		{
			"resource": {
				"resourceType": "MedicationRequest",
				"id": "numer-EXM104-5",
				"status": "completed",
				"intent": "order",
				"category": [ {
					"coding": [ {
						"system": "http://terminology.hl7.org/CodeSystem/medicationrequest-category",
						"code": "discharge",
						"display": "Discharge"
					} ]
				} ],
				"medicationCodeableConcept": {
					"coding": [ {
						"system": "http://www.nlm.nih.gov/research/umls/rxnorm",
						"code": "1037045",
						"display": "dabigatran etexilate 150 MG Oral Capsule"
					} ]
				},
				"subject": {
					"reference": "Patient/numer-EXM104"
				},
				"authoredOn": "2019-12-17T08:00:00"
			},
			"request": {
				"method": "PUT",
				"url": "MedicationRequest/numer-EXM104-5"
			}
		},
		{
			"resource": {
				"resourceType": "Patient",
				"id": "denomexcl-EXM104",
				"meta": {
					"profile": [ "http://hl7.org/fhir/us/core/StructureDefinition/us-core-patient" ]
				},
				"extension": [ {
					"url": "http://hl7.org/fhir/us/core/StructureDefinition/us-core-race",
					"extension": [ {
						"url": "ombCategory",
						"valueCoding": {
							"system": "urn:oid:2.16.840.1.113883.6.238",
							"code": "2054-5",
							"display": "Black or African American"
						}
					} ]
				}, {
					"url": "http://hl7.org/fhir/us/core/StructureDefinition/us-core-ethnicity",
					"extension": [ {
						"url": "ombCategory",
						"valueCoding": {
							"system": "urn:oid:2.16.840.1.113883.6.238",
							"code": "2135-2",
							"display": "Hispanic or Latino"
						}
					} ]
				} ],
				"identifier": [ {
					"use": "usual",
					"type": {
						"coding": [ {
							"system": "http://terminology.hl7.org/CodeSystem/v2-0203",
							"code": "MR",
							"display": "Medical Record Number"
						} ]
					},
					"system": "http://hospital.smarthealthit.org",
					"value": "9999999910"
				} ],
				"name": [ {
					"family": "Jones",
					"given": [ "Rick" ]
				} ],
				"gender": "male",
				"birthDate": "1955-11-05"
			},
			"request": {
				"method": "PUT",
				"url": "Patient/denomexcl-EXM104"
			}
		},
		{
			"resource": {
				"resourceType": "Condition",
				"id": "numer-EXM104-1",
				"meta": {
					"profile": [ "http://hl7.org/fhir/us/core/StructureDefinition/us-core-condition" ]
				},
				"verificationStatus": {
					"coding": [ {
						"system": "http://terminology.hl7.org/CodeSystem/condition-ver-status",
						"code": "confirmed",
						"display": "Confirmed"
					} ]
				},
				"category": [ {
					"coding": [ {
						"system": "http://terminology.hl7.org/CodeSystem/condition-category",
						"code": "encounter-diagnosis",
						"display": "Encounter Diagnosis"
					} ]
				} ],
				"code": {
					"coding": [ {
						"system": "http://snomed.info/sct",
						"code": "116288000",
						"display": "Paralytic stroke (disorder)"
					} ]
				},
				"subject": {
					"reference": "Patient/numer-EXM104"
				}
			},
			"request": {
				"method": "PUT",
				"url": "Condition/numer-EXM104-1"
			}
		},
		{
			"resource": {
				"resourceType": "Patient",
				"id": "denom-EXM104",
				"meta": {
					"profile": [ "http://hl7.org/fhir/us/core/StructureDefinition/us-core-patient" ]
				},
				"extension": [ {
					"url": "http://hl7.org/fhir/us/core/StructureDefinition/us-core-race",
					"extension": [ {
						"url": "ombCategory",
						"valueCoding": {
							"system": "urn:oid:2.16.840.1.113883.6.238",
							"code": "2054-5",
							"display": "Black or African American"
						}
					} ]
				}, {
					"url": "http://hl7.org/fhir/us/core/StructureDefinition/us-core-ethnicity",
					"extension": [ {
						"url": "ombCategory",
						"valueCoding": {
							"system": "urn:oid:2.16.840.1.113883.6.238",
							"code": "2135-2",
							"display": "Hispanic or Latino"
						}
					} ]
				} ],
				"identifier": [ {
					"use": "usual",
					"type": {
						"coding": [ {
							"system": "http://terminology.hl7.org/CodeSystem/v2-0203",
							"code": "MR",
							"display": "Medical Record Number"
						} ]
					},
					"system": "http://hospital.smarthealthit.org",
					"value": "9999999910"
				} ],
				"name": [ {
					"family": "Jones",
					"given": [ "Rick" ]
				} ],
				"gender": "male",
				"birthDate": "1955-11-05"
			},
			"request": {
				"method": "PUT",
				"url": "Patient/denom-EXM104"
			}
		},
		{
			"resource": {
				"resourceType": "Condition",
				"id": "denomexcl-EXM104-1",
				"meta": {
					"profile": [ "http://hl7.org/fhir/us/core/StructureDefinition/us-core-condition" ]
				},
				"verificationStatus": {
					"coding": [ {
						"system": "http://terminology.hl7.org/CodeSystem/condition-ver-status",
						"code": "confirmed",
						"display": "Confirmed"
					} ]
				},
				"category": [ {
					"coding": [ {
						"system": "http://terminology.hl7.org/CodeSystem/condition-category",
						"code": "encounter-diagnosis",
						"display": "Encounter Diagnosis"
					} ]
				} ],
				"code": {
					"coding": [ {
						"system": "http://snomed.info/sct",
						"code": "116288000",
						"display": "Paralytic stroke (disorder)"
					} ]
				},
				"subject": {
					"reference": "Patient/denomexcl-EXM104"
				}
			},
			"request": {
				"method": "PUT",
				"url": "Condition/denomexcl-EXM104-1"
			}
		}
	, {
			"resource": {
				"resourceType": "Encounter",
				"id": "denom-EXM104-2",
				"meta": {
					"profile": [ "http://hl7.org/fhir/us/core/StructureDefinition/us-core-encounter" ]
				},
				"status": "finished",
				"class": {
					"system": "http://terminology.hl7.org/CodeSystem/v3-ActCode",
					"code": "IMP",
					"display": "inpatient encounter"
				},
				"type": [ {
					"coding": [ {
						"system": "http://snomed.info/sct",
						"code": "32485007",
						"display": "Hospital admission (procedure)"
					} ]
				} ],
				"subject": {
					"reference": "Patient/denom-EXM104"
				},
				"period": {
					"start": "2019-08-21T00:00:00-06:00",
					"end": "2019-12-19T08:15:00-07:00"
				},
				"diagnosis": [ {
					"condition": {
						"reference": "Condition/denom-EXM104-1"
					},
					"use": {
						"coding": [ {
							"system": "http://hl7.org/fhir/diagnosis-role",
							"code": "billing",
							"display": "Billing"
						} ]
					},
					"rank": 1
				} ]
			},
			"request": {
				"method": "PUT",
				"url": "Encounter/denom-EXM104-2"
			}
		},{
			"resource": {
				"resourceType": "Encounter",
				"id": "denomexcl-EXM104-2",
				"meta": {
					"profile": [ "http://hl7.org/fhir/us/core/StructureDefinition/us-core-encounter" ]
				},
				"status": "finished",
				"class": {
					"system": "http://terminology.hl7.org/CodeSystem/v3-ActCode",
					"code": "IMP",
					"display": "inpatient encounter"
				},
				"type": [ {
					"coding": [ {
						"system": "http://snomed.info/sct",
						"code": "32485007",
						"display": "Hospital admission (procedure)"
					} ]
				} ],
				"subject": {
					"reference": "Patient/denomexcl-EXM104"
				},
				"period": {
					"start": "2019-08-21T00:00:00-06:00",
					"end": "2019-12-19T08:15:00-07:00"
				},
				"diagnosis": [ {
					"condition": {
						"reference": "Condition/denomexcl-EXM104-1"
					},
					"use": {
						"coding": [ {
							"system": "http://hl7.org/fhir/diagnosis-role",
							"code": "billing",
							"display": "Billing"
						} ]
					},
					"rank": 1
				} ]
			},
			"request": {
				"method": "PUT",
				"url": "Encounter/denomexcl-EXM104-2"
			}
		},
		{
			"resource": {
				"resourceType": "Encounter",
				"id": "numer-EXM104-2",
				"meta": {
					"profile": [ "http://hl7.org/fhir/us/core/StructureDefinition/us-core-encounter" ]
				},
				"status": "finished",
				"class": {
					"system": "http://terminology.hl7.org/CodeSystem/v3-ActCode",
					"code": "IMP",
					"display": "inpatient encounter"
				},
				"type": [ {
					"coding": [ {
						"system": "http://snomed.info/sct",
						"code": "32485007",
						"display": "Hospital admission (procedure)"
					} ]
				} ],
				"subject": {
					"reference": "Patient/numer-EXM104"
				},
				"period": {
					"start": "2019-08-21T00:00:00-06:00",
					"end": "2019-12-19T08:15:00-07:00"
				},
				"diagnosis": [ {
					"condition": {
						"reference": "Condition/numer-EXM104-1"
					},
					"use": {
						"coding": [ {
							"system": "http://hl7.org/fhir/diagnosis-role",
							"code": "billing",
							"display": "Billing"
						} ]
					},
					"rank": 1
				} ]
			},
			"request": {
				"method": "PUT",
				"url": "Encounter/numer-EXM104-2"
			}
		},{
			"resource": {
				"resourceType": "ServiceRequest",
				"id": "denomexcl-EXM104-1",
				"status": "active",
				"intent": "order",
				"code": {
					"coding": [ {
						"system": "http://snomed.info/sct",
						"code": "133918004",
						"display": "Comfort measures (regime/therapy)"
					} ]
				},
				"subject": {
					"reference": "Patient/denomexcl-EXM104"
				},
				"encounter": {
					"reference": "Encounter/denomexcl-EXM104-2"
				},
				"authoredOn": "2019-08-21T00:00:00-06:00"
			},
			"request": {
				"method": "PUT",
				"url": "ServiceRequest/denomexcl-EXM104-1"
			}
		}
	]
}
