{
	"resourceType": "Bundle",
	"id": "ra-remediate-result-precondition-error",
	"meta": {
		"lastUpdated": "2022-11-07T10:32:06.759-07:00",
		"profile": [
			"http://hl7.org/fhir/us/davinci-ra/StructureDefinition/ra-coding-gap-bundle"
		]
	},
	"identifier": {
		"system": "urn:ietf:rfc:3986",
		"value": "urn:uuid:7d8e6407-0ccd-4e68-b485-0b0cce5f6787"
	},
	"type": "document",
	"timestamp": "2022-11-07T10:32:06.759-07:00",
	"entry": [
		{
			"resource": {
				"resourceType": "Composition",
				"meta": {
					"lastUpdated": "2022-11-07T22:32:06.759-07:00",
					"profile": [
						"http://hl7.org/fhir/us/davinci-ra/StructureDefinition/ra-coding-gap-composition"
					]
				},
				"identifier": {
					"system": "urn:ietf:rfc:3986",
					"value": "urn:uuid:e729e44f-756b-43cd-a9a3-2913d3bce01d"
				},
				"status": "preliminary",
				"type": {
					"coding": [
						{
							"system": "http://loinc.org",
							"code": "96315-7",
							"display": "Gaps in care report"
						}
					]
				},
				"subject": {
					"reference": "Patient/ra-patient02"
				},
				"date": "2022-11-06T15:50:24-06:00",
				"section": [
					{
						"code": {
							"coding": [
								{
									"system": "http://terminology.hl7.org/CodeSystem/cmshcc",
									"version": "24",
									"code": "96",
									"display": "Specified Heart.Arrhythmias"
								}
							],
							"text": "CMS HCC: 96, Specified Heart.Arrhythmias"
						},
						"focus": {
							"reference": "MeasureReport/ra-measurereport03"
						},
						"entry": [
							{
								"reference": "DetectedIssue/ra-measurereport03-group-001"
							}
						]
					},
					{
						"code": {
							"coding": [
								{
									"system": "http://terminology.hl7.org/CodeSystem/cmshcc",
									"version": "24",
									"code": "110",
									"display": "Cystic Fibrosis"
								}
							],
							"text": "HCC 110: Cystic Fibrosis"
						},
						"focus": {
							"reference": "MeasureReport/ra-measurereport03"
						},
						"entry": [
							{
								"reference": "DetectedIssue/ra-measurereport03-group-002"
							}
						]
					},
					{
						"code": {
							"coding": [
								{
									"system": "http://terminology.hl7.org/CodeSystem/cmshcc",
									"version": "24",
									"code": "110",
									"display": "Cystic Fibrosis"
								}
							],
							"text": "HCC 110: Cystic Fibrosis"
						},
						"focus": {
							"reference": "MeasureReport/ra-measurereport03"
						},
						"entry": [
							{
								"reference": "DetectedIssue/ra-measurereport03-remediate"
							}
						]
					}
				]
			}
		},
		{
			"resource": {
				"resourceType": "DetectedIssue",
				"id": "ra-measurereport03-group-001",
				"meta": {
					"lastUpdated": "2022-11-06T15:50:24.082-06:00",
					"profile": [
						"http://hl7.org/fhir/us/davinci-ra/StructureDefinition/ra-coding-gap-original-detectedissue"
					]
				},
				"extension": [
					{
						"url": "http://hl7.org/fhir/us/davinci-ra/StructureDefinition/ra-groupReference",
						"valueString": "group-001"
					}
				],
				"status": "preliminary",
				"code": {
					"coding": [
						{
							"system": "http://terminology.hl7.org/CodeSystem/v3-ActCode",
							"code": "CODINGGAP",
							"display": "Coding Gaps"
						}
					]
				},
				"patient": {
					"reference": "Patient/ra-patient02"
				},
				"implicated": [
					{
						"reference": "MeasureReport/ra-measurereport03"
					}
				],
				"evidence": [
					{
						"detail": [
							{
								"extension": [
									{
										"url": "http://hl7.org/fhir/us/davinci-ra/StructureDefinition/ra-groupReference",
										"valueString": "group-001"
									}
								],
								"reference": "Condition/ra-condition31pat02"
							}
						]
					},
					{
						"detail": [
							{
								"extension": [
									{
										"url": "http://hl7.org/fhir/us/davinci-ra/StructureDefinition/ra-groupReference",
										"valueString": "group-001"
									}
								],
								"reference": "Encounter/ra-encounter31pat02"
							}
						]
					},
					{
						"detail": [
							{
								"extension": [
									{
										"url": "http://hl7.org/fhir/us/davinci-ra/StructureDefinition/ra-groupReference",
										"valueString": "group-001"
									},
									{
										"url": "http://hl7.org/fhir/us/davinci-ra/StructureDefinition/ra-groupReference",
										"valueString": "group-002"
									}
								],
								"reference": "Patient/ra-patient02"
							}
						]
					}
				]
			}
		},
		{
			"resource": {
				"resourceType": "DetectedIssue",
				"id": "ra-measurereport03-group-002",
				"meta": {
					"lastUpdated": "2022-11-06T15:50:24.083-06:00",
					"profile": [
						"http://hl7.org/fhir/us/davinci-ra/StructureDefinition/ra-coding-gap-original-detectedissue"
					]
				},
				"extension": [
					{
						"url": "http://hl7.org/fhir/us/davinci-ra/StructureDefinition/ra-groupReference",
						"valueString": "group-002"
					}
				],
				"status": "preliminary",
				"code": {
					"coding": [
						{
							"system": "http://terminology.hl7.org/CodeSystem/v3-ActCode",
							"code": "CODINGGAP",
							"display": "Coding Gaps"
						}
					]
				},
				"patient": {
					"reference": "Patient/ra-patient02"
				},
				"implicated": [
					{
						"reference": "MeasureReport/ra-measurereport03"
					}
				],
				"evidence": [
					{
						"detail": [
							{
								"extension": [
									{
										"url": "http://hl7.org/fhir/us/davinci-ra/StructureDefinition/ra-groupReference",
										"valueString": "group-002"
									}
								],
								"reference": "Observation/ra-obs01pat02"
							}
						]
					},
					{
						"detail": [
							{
								"extension": [
									{
										"url": "http://hl7.org/fhir/us/davinci-ra/StructureDefinition/ra-groupReference",
										"valueString": "group-001"
									},
									{
										"url": "http://hl7.org/fhir/us/davinci-ra/StructureDefinition/ra-groupReference",
										"valueString": "group-002"
									}
								],
								"reference": "Patient/ra-patient02"
							}
						]
					}
				]
			}
		},
		{
			"resource": {
				"resourceType": "DetectedIssue",
				"id": "ra-measurereport03-remediate-precondition-error",
				"meta": {
					"versionId": "1",
					"lastUpdated": "2022-11-07T22:32:06.623-07:00",
					"profile": [
						"http://hl7.org/fhir/us/davinci-ra/StructureDefinition/ra-coding-gap-clinical-evaluation-detectedissue"
					]
				},
				"extension": [
					{
						"url": "http://hl7.org/fhir/us/davinci-ra/StructureDefinition/ra-groupReference",
						"valueString": "group-002"
					}
				],
				"modifierExtension": [
					{
						"url": "http://hl7.org/fhir/us/davinci-ra/StructureDefinition/ra-codingGapRequest",
						"valueCodeableConcept": {
							"coding": [
								{
									"system": "http://hl7.org/fhir/us/davinci-ra/CodeSystem/coding-gap-request",
									"code": "closure-request"
								}
							]
						}
					}
				],
				"status": "final",
				"code": {
					"coding": [
						{
							"system": "http://terminology.hl7.org/CodeSystem/v3-ActCode",
							"code": "CODINGGAP",
							"display": "Coding Gaps"
						}
					]
				},
				"patient": {
					"reference": "Patient/ra-patient02"
				},
				"implicated": [
					{
						"reference": "MeasureReport/ra-measurereport03"
					}
				],
				"evidence": [
					{
						"detail": [
							{
								"reference": "MeasureReport/ra-measurereport03"
							}
						]
					},
					{
						"detail": [
							{
								"reference": "Condition/ra-measurereport03-remediate"
							}
						]
					},
					{
						"detail": [
							{
								"reference": "Encounter/ra-measurereport03-remediate"
							}
						]
					}
				]
			}
		},
		{
			"resource": {
				"resourceType": "DetectedIssue",
				"id": "ra-measurereport03-remediate-precondition-error-1",
				"meta": {
					"versionId": "1",
					"lastUpdated": "2022-11-08T22:32:06.623-07:00",
					"profile": [
						"http://hl7.org/fhir/us/davinci-ra/StructureDefinition/ra-coding-gap-clinical-evaluation-detectedissue"
					]
				},
				"extension": [
					{
						"url": "http://hl7.org/fhir/us/davinci-ra/StructureDefinition/ra-groupReference",
						"valueString": "group-002"
					}
				],
				"modifierExtension": [
					{
						"url": "http://hl7.org/fhir/us/davinci-ra/StructureDefinition/ra-codingGapRequest",
						"valueCodeableConcept": {
							"coding": [
								{
									"system": "http://hl7.org/fhir/us/davinci-ra/CodeSystem/coding-gap-request",
									"code": "closure-request"
								}
							]
						}
					}
				],
				"status": "final",
				"code": {
					"coding": [
						{
							"system": "http://terminology.hl7.org/CodeSystem/v3-ActCode",
							"code": "CODINGGAP",
							"display": "Coding Gaps"
						}
					]
				},
				"patient": {
					"reference": "Patient/ra-patient02"
				},
				"implicated": [
					{
						"reference": "MeasureReport/ra-measurereport03"
					}
				],
				"evidence": [
					{
						"detail": [
							{
								"reference": "MeasureReport/ra-measurereport03"
							}
						]
					},
					{
						"detail": [
							{
								"reference": "Condition/ra-measurereport03-remediate"
							}
						]
					},
					{
						"detail": [
							{
								"reference": "Encounter/ra-measurereport03-remediate"
							}
						]
					}
				]
			}
		},
		{
			"resource": {
				"resourceType": "MeasureReport",
				"id": "ra-measurereport03",
				"meta": {
					"versionId": "1",
					"lastUpdated": "2022-11-06T15:50:23.924-06:00",
					"profile": [
						"http://hl7.org/fhir/us/davinci-ra/StructureDefinition/ra-measurereport"
					]
				},
				"extension": [
					{
						"url": "http://hl7.org/fhir/us/davinci-ra/StructureDefinition/ra-clinicalDataCollectionDeadline",
						"valueDate": "2022-03-31"
					}
				],
				"status": "complete",
				"type": "individual",
				"measure": "https://build.fhir.org/ig/HL7/davinci-ra/Measure-RAModelExample01",
				"subject": {
					"reference": "Patient/ra-patient02"
				},
				"date": "2021-10-18",
				"reporter": {
					"reference": "Organization/ra-payer01"
				},
				"period": {
					"start": "2021-01-01",
					"end": "2021-09-30"
				},
				"group": [
					{
						"id": "group-001",
						"extension": [
							{
								"url": "http://hl7.org/fhir/us/davinci-ra/StructureDefinition/ra-suspectType",
								"valueCodeableConcept": {
									"coding": [
										{
											"system": "http://hl7.org/fhir/us/davinci-ra/CodeSystem/suspect-type",
											"code": "historic"
										}
									]
								}
							},
							{
								"url": "http://hl7.org/fhir/us/davinci-ra/StructureDefinition/ra-evidenceStatus",
								"valueCodeableConcept": {
									"coding": [
										{
											"system": "http://hl7.org/fhir/us/davinci-ra/CodeSystem/evidence-status",
											"code": "closed-gap"
										}
									]
								}
							},
							{
								"url": "http://hl7.org/fhir/us/davinci-ra/StructureDefinition/ra-hierarchicalStatus",
								"valueCodeableConcept": {
									"coding": [
										{
											"system": "http://hl7.org/fhir/us/davinci-ra/CodeSystem/hierarchical-status",
											"code": "applied-not-superseded"
										}
									]
								}
							}
						],
						"code": {
							"coding": [
								{
									"system": "http://terminology.hl7.org/CodeSystem/cmshcc",
									"version": "24",
									"code": "96",
									"display": "Specified Heart.Arrhythmias"
								}
							],
							"text": "CMS HCC: 96, Specified Heart.Arrhythmias"
						}
					},
					{
						"id": "group-002",
						"extension": [
							{
								"url": "http://hl7.org/fhir/us/davinci-ra/StructureDefinition/ra-suspectType",
								"valueCodeableConcept": {
									"coding": [
										{
											"system": "http://hl7.org/fhir/us/davinci-ra/CodeSystem/suspect-type",
											"code": "suspected"
										}
									]
								}
							},
							{
								"url": "http://hl7.org/fhir/us/davinci-ra/StructureDefinition/ra-evidenceStatus",
								"valueCodeableConcept": {
									"coding": [
										{
											"system": "http://hl7.org/fhir/us/davinci-ra/CodeSystem/evidence-status",
											"code": "open-gap"
										}
									]
								}
							},
							{
								"url": "http://hl7.org/fhir/us/davinci-ra/StructureDefinition/ra-evidenceStatusDate",
								"valueDate": "2020-07-15"
							},
							{
								"url": "http://hl7.org/fhir/us/davinci-ra/StructureDefinition/ra-hierarchicalStatus",
								"valueCodeableConcept": {
									"coding": [
										{
											"system": "http://hl7.org/fhir/us/davinci-ra/CodeSystem/hierarchical-status",
											"code": "applied-not-superseded"
										}
									]
								}
							}
						],
						"code": {
							"coding": [
								{
									"system": "http://terminology.hl7.org/CodeSystem/cmshcc",
									"version": "24",
									"code": "110",
									"display": "Cystic Fibrosis"
								}
							],
							"text": "HCC 110: Cystic Fibrosis"
						}
					}
				],
				"evaluatedResource": [
					{
						"extension": [
							{
								"url": "http://hl7.org/fhir/us/davinci-ra/StructureDefinition/ra-groupReference",
								"valueString": "group-001"
							}
						],
						"reference": "Condition/ra-condition31pat02"
					},
					{
						"extension": [
							{
								"url": "http://hl7.org/fhir/us/davinci-ra/StructureDefinition/ra-groupReference",
								"valueString": "group-001"
							}
						],
						"reference": "Encounter/ra-encounter31pat02"
					},
					{
						"extension": [
							{
								"url": "http://hl7.org/fhir/us/davinci-ra/StructureDefinition/ra-groupReference",
								"valueString": "group-002"
							}
						],
						"reference": "Observation/ra-obs01pat02"
					},
					{
						"extension": [
							{
								"url": "http://hl7.org/fhir/us/davinci-ra/StructureDefinition/ra-groupReference",
								"valueString": "group-001"
							},
							{
								"url": "http://hl7.org/fhir/us/davinci-ra/StructureDefinition/ra-groupReference",
								"valueString": "group-002"
							}
						],
						"reference": "Patient/ra-patient02"
					}
				]
			}
		},
		{
			"resource": {
				"resourceType": "Patient",
				"id": "ra-patient02",
				"meta": {
					"versionId": "2",
					"lastUpdated": "2022-11-07T22:32:06.522-07:00",
					"profile": [
						"http://hl7.org/fhir/us/core/StructureDefinition/us-core-patient"
					]
				},
				"text": {
					"status": "generated",
					"div": "<div xmlns=\"http://www.w3.org/1999/xhtml\"><div class=\"hapiHeaderText\">Adam <b>EVERYMAN </b></div><table class=\"hapiPropertyTable\"><tbody><tr><td>Identifier</td><td>23456</td></tr><tr><td>Address</td><td><span>2222 Home Street </span><br/><span>Ann Arbor </span><span>MI </span><span>USA </span></td></tr><tr><td>Date of birth</td><td><span>16 December 1950</span></td></tr></tbody></table></div>"
				},
				"extension": [
					{
						"url": "http://hl7.org/fhir/us/core/StructureDefinition/us-core-birthsex",
						"valueCode": "M"
					},
					{
						"url": "http://hl7.org/fhir/us/core/StructureDefinition/us-core-race",
						"extension": [
							{
								"url": "ombCategory",
								"valueCoding": {
									"system": "urn:oid:2.16.840.1.113883.6.238",
									"code": "2106-3",
									"display": "White"
								}
							},
							{
								"url": "text",
								"valueString": "White"
							}
						]
					},
					{
						"url": "http://hl7.org/fhir/us/core/StructureDefinition/us-core-ethnicity",
						"extension": [
							{
								"url": "ombCategory",
								"valueCoding": {
									"system": "urn:oid:2.16.840.1.113883.6.238",
									"code": "2186-5",
									"display": "Not Hispanic or Latino"
								}
							},
							{
								"url": "text",
								"valueString": "Not Hispanic or Latino"
							}
						]
					}
				],
				"identifier": [
					{
						"use": "usual",
						"type": {
							"coding": [
								{
									"system": "http://terminology.hl7.org/CodeSystem/v2-0203",
									"code": "MR",
									"display": "Medical record number"
								}
							]
						},
						"system": "http://hospital.davinci.org",
						"value": "23456"
					}
				],
				"active": true,
				"name": [
					{
						"use": "official",
						"family": "Everyman",
						"given": [
							"Adam"
						]
					}
				],
				"gender": "female",
				"birthDate": "1950-12-16",
				"deceasedBoolean": false,
				"address": [
					{
						"use": "home",
						"line": [
							"2222 Home Street"
						],
						"city": "Ann Arbor",
						"state": "MI",
						"postalCode": "99999",
						"country": "USA"
					}
				],
				"maritalStatus": {
					"coding": [
						{
							"system": "http://terminology.hl7.org/CodeSystem/v3-MaritalStatus",
							"code": "M",
							"display": "Married"
						}
					]
				},
				"communication": [
					{
						"language": {
							"coding": [
								{
									"system": "urn:ietf:bcp:47",
									"code": "en-US",
									"display": "English (Region=United States)"
								}
							]
						},
						"preferred": true
					}
				]
			}
		},
		{
			"resource": {
				"resourceType": "Condition",
				"id": "ra-measurereport03-remediate",
				"meta": {
					"versionId": "2",
					"lastUpdated": "2022-11-07T22:32:06.509-07:00",
					"profile": [
						"http://hl7.org/fhir/us/core/StructureDefinition/us-core-condition"
					]
				},
				"clinicalStatus": {
					"coding": [
						{
							"system": "http://terminology.hl7.org/CodeSystem/condition-clinical",
							"code": "active",
							"display": "Active"
						}
					],
					"text": "Active"
				},
				"verificationStatus": {
					"coding": [
						{
							"system": "http://terminology.hl7.org/CodeSystem/condition-ver-status",
							"code": "confirmed",
							"display": "Confirmed"
						}
					],
					"text": "Confirmed"
				},
				"category": [
					{
						"coding": [
							{
								"system": "http://terminology.hl7.org/CodeSystem/condition-category",
								"code": "encounter-diagnosis",
								"display": "Encounter Diagnosis"
							}
						],
						"text": "Encounter Diagnosis"
					}
				],
				"code": {
					"coding": [
						{
							"system": "http://hl7.org/fhir/sid/icd-10-cm",
							"code": "E84.19",
							"display": "Cystic fibrosis with other intestinal manifestations"
						}
					],
					"text": "E84.19: Cystic fibrosis with other intestinal manifestations"
				},
				"subject": {
					"reference": "Patient/ra-patient02"
				},
				"onsetDateTime": "1978-01-31"
			}
		},
		{
			"resource": {
				"resourceType": "Encounter",
				"id": "ra-encounter31pat02",
				"meta": {
					"extension": [
						{
							"url": "http://hl7.org/fhir/StructureDefinition/instance-name",
							"valueString": "Encounter with Dr Pump on 20210806 for Patient 02"
						},
						{
							"url": "http://hl7.org/fhir/StructureDefinition/instance-description",
							"valueMarkdown": "This is Encounter with Dr Howell on 20210806 for Patient 02."
						}
					],
					"versionId": "1",
					"lastUpdated": "2022-11-07T22:32:06.435-07:00",
					"profile": [
						"http://hl7.org/fhir/us/core/StructureDefinition/us-core-encounter"
					]
				},
				"status": "finished",
				"class": {
					"system": "http://terminology.hl7.org/CodeSystem/v3-ActCode",
					"code": "AMB",
					"display": "ambulatory"
				},
				"type": [
					{
						"coding": [
							{
								"system": "http://www.ama-assn.org/go/cpt",
								"code": "99215"
							}
						],
						"text": "Office Visit, High Complexity"
					}
				],
				"subject": {
					"reference": "Patient/ra-patient02"
				},
				"participant": [
					{
						"individual": {
							"reference": "Practitioner/ra-prac02pat02"
						}
					}
				],
				"period": {
					"start": "2021-08-06",
					"end": "2021-08-06"
				},
				"diagnosis": [
					{
						"condition": {
							"reference": "Condition/ra-condition31pat02"
						}
					}
				],
				"serviceProvider": {
					"reference": "Organization/ra-org02pat02"
				}
			}
		},
		{
			"resource": {
				"resourceType": "Observation",
				"id": "ra-obs01pat02",
				"meta": {
					"extension": [
						{
							"url": "http://hl7.org/fhir/StructureDefinition/instance-name",
							"valueString": "Trypsin [Mass/volume] in Serum or Plasma for Pat01"
						},
						{
							"url": "http://hl7.org/fhir/StructureDefinition/instance-description",
							"valueMarkdown": "Trypsin [Mass/volume] in Serum or Plasma for Pat01*."
						}
					],
					"versionId": "1",
					"lastUpdated": "2022-11-07T22:32:06.272-07:00",
					"profile": [
						"http://hl7.org/fhir/us/core/StructureDefinition/us-core-observation-lab"
					]
				},
				"status": "final",
				"category": [
					{
						"coding": [
							{
								"system": "http://terminology.hl7.org/CodeSystem/observation-category",
								"code": "laboratory",
								"display": "Laboratory"
							}
						],
						"text": "Laboratory"
					}
				],
				"code": {
					"coding": [
						{
							"system": "http://loinc.org",
							"code": "33325-2",
							"display": "Trypsin [Mass/volume] in Serum or Plasma"
						}
					],
					"text": "Trypsin [Mass/volume] in Serum or Plasma"
				},
				"subject": {
					"reference": "Patient/ra-patient02",
					"display": "Adam Everyman"
				},
				"effectiveDateTime": "2019-06-17",
				"valueQuantity": {
					"value": 770,
					"unit": "ng/mL",
					"system": "http://unitsofmeasure.org"
				},
				"referenceRange": [
					{
						"low": {
							"value": 169,
							"unit": "ng/mL",
							"system": "http://unitsofmeasure.org",
							"code": "ng/mL"
						},
						"high": {
							"value": 773,
							"unit": "ng/mL",
							"system": "http://unitsofmeasure.org",
							"code": "mg/dL"
						},
						"type": {
							"coding": [
								{
									"system": "http://terminology.hl7.org/CodeSystem/referencerange-meaning",
									"code": "normal",
									"display": "Normal Range"
								}
							],
							"text": "Normal Range"
						}
					}
				]
			}
		},
		{
			"resource": {
				"resourceType": "Condition",
				"id": "ra-condition31pat02",
				"meta": {
					"versionId": "2",
					"lastUpdated": "2022-11-07T22:32:06.482-07:00",
					"profile": [
						"http://hl7.org/fhir/us/core/StructureDefinition/us-core-condition"
					]
				},
				"clinicalStatus": {
					"coding": [
						{
							"system": "http://terminology.hl7.org/CodeSystem/condition-clinical",
							"code": "active",
							"display": "Active"
						}
					],
					"text": "Active"
				},
				"verificationStatus": {
					"coding": [
						{
							"system": "http://terminology.hl7.org/CodeSystem/condition-ver-status",
							"code": "confirmed",
							"display": "Confirmed"
						}
					],
					"text": "Confirmed"
				},
				"category": [
					{
						"coding": [
							{
								"system": "http://terminology.hl7.org/CodeSystem/condition-category",
								"code": "encounter-diagnosis",
								"display": "Encounter Diagnosis"
							}
						],
						"text": "Encounter Diagnosis"
					}
				],
				"code": {
					"coding": [
						{
							"system": "http://hl7.org/fhir/sid/icd-10-cm",
							"code": "I48.3",
							"display": "Typical atrial flutter"
						}
					],
					"text": "Typical atrial flutter"
				},
				"subject": {
					"reference": "Patient/ra-patient02"
				},
				"onsetDateTime": "2021-08-06"
			}
		},
		{
			"resource": {
				"resourceType": "Encounter",
				"id": "ra-measurereport03-remediate",
				"meta": {
					"extension": [
						{
							"url": "http://hl7.org/fhir/StructureDefinition/instance-name",
							"valueString": "Encounter with Dr Howell on 20210714 for Patient 02"
						},
						{
							"url": "http://hl7.org/fhir/StructureDefinition/instance-description",
							"valueMarkdown": "This is Encounter with Dr Howell on 20210714 for Patient 02."
						}
					],
					"versionId": "1",
					"lastUpdated": "2022-11-07T22:32:06.463-07:00",
					"profile": [
						"http://hl7.org/fhir/us/core/StructureDefinition/us-core-encounter"
					]
				},
				"status": "finished",
				"class": {
					"system": "http://terminology.hl7.org/CodeSystem/v3-ActCode",
					"code": "AMB",
					"display": "ambulatory"
				},
				"type": [
					{
						"coding": [
							{
								"system": "http://www.ama-assn.org/go/cpt",
								"code": "99215"
							}
						],
						"text": "Office Visit, High Complexity"
					}
				],
				"subject": {
					"reference": "Patient/ra-patient02"
				},
				"participant": [
					{
						"individual": {
							"reference": "Practitioner/ra-prac01pat01"
						}
					}
				],
				"period": {
					"start": "2021-03-27",
					"end": "2021-03-27"
				},
				"diagnosis": [
					{
						"condition": {
							"reference": "Condition/ra-measurereport03-remediate"
						}
					}
				],
				"serviceProvider": {
					"reference": "Organization/ra-org02pat02"
				}
			}
		}
	]
}
