{
  "resourceType": "Bundle",
  "id": "ConditionCategoryPOC-bundle",
  "type": "transaction",
  "entry": [ {
    "resource": {
      "resourceType": "ValueSet",
      "id": "example-acquired-lower-limb-deformities",
      "url": "http://hl7.org/fhir/us/davinci-ra/ValueSet/example-acquired-lower-limb-deformities",
      "identifier": [ {
        "value": "example-acquired-lower-limb-deformities"
      } ],
      "version": "24.1.001",
      "name": "Example_Acquired_Lower_Limb_Deformities",
      "title": "Example Acquired Lower Limb Deformities",
      "status": "active",
      "expansion": {
        "timestamp": "2022-06-06T14:51:05-04:00",
        "total": 1,
        "offset": 0,
        "contains": [ {
          "system": "http://terminology.hl7.org/CodeSystem/cmshcc",
          "version": "24.1.001",
          "code": "189",
          "display": "Amputation Status, Lower Limb/Amputation Complications"
        } ]
      }
    },
    "request": {
      "method": "PUT",
      "url": "ValueSet/example-acquired-lower-limb-deformities"
    }
  }, {
    "resource": {
      "resourceType": "ValueSet",
      "id": "2.16.840.1.113883.3.117.1.7.1.292",
      "url": "http://cts.nlm.nih.gov/fhir/ValueSet/2.16.840.1.113883.3.117.1.7.1.292",
      "identifier": [ {
        "system": "urn:ietf:rfc:3986",
        "value": "2.16.840.1.113883.3.117.1.7.1.292"
      } ],
      "version": "20210220",
      "name": "EmergencyDepartmentVisit",
      "title": "Emergency Department Visit",
      "status": "active",
      "experimental": false,
      "publisher": "NLM",
      "expansion": {
        "identifier": "20210506",
        "timestamp": "2021-07-19T17:22:05-06:00",
        "contains": [ {
          "system": "http://snomed.info/sct",
          "version": "2020-09",
          "code": "4525004",
          "display": "Emergency department patient visit (procedure)"
        } ]
      }
    },
    "request": {
      "method": "PUT",
      "url": "ValueSet/2.16.840.1.113883.3.117.1.7.1.292"
    }
  }, {
    "resource": {
      "resourceType": "Library",
      "id": "MATGlobalCommonFunctionsFHIR4",
      "extension": [ {
        "url": "http://hl7.org/fhir/us/cqfmeasures/StructureDefinition/cqfm-softwaresystem",
        "valueReference": {
          "reference": "Device/cqf-tooling"
        }
      } ],
      "url": "http://hl7.org/fhir/us/davinci-ra/Library/MATGlobalCommonFunctionsFHIR4",
      "version": "6.1.000",
      "name": "MATGlobalCommonFunctionsFHIR4",
      "relatedArtifact": [ {
        "type": "depends-on",
        "display": "FHIR model information",
        "resource": "http://fhir.org/guides/cqf/common/Library/FHIR-ModelInfo|4.0.1"
      }, {
        "type": "depends-on",
        "display": "Library FHIRHelpers",
        "resource": "http://hl7.org/fhir/us/davinci-ra/Library/FHIRHelpers|4.0.001"
      }, {
        "type": "depends-on",
        "display": "Code system ConditionClinicalStatusCodes",
        "resource": "http://terminology.hl7.org/CodeSystem/condition-clinical"
      }, {
        "type": "depends-on",
        "display": "Code system AllergyIntoleranceClinicalStatusCodes",
        "resource": "http://terminology.hl7.org/CodeSystem/allergyintolerance-clinical"
      }, {
        "type": "depends-on",
        "display": "Code system AllergyIntoleranceVerificationStatusCodes",
        "resource": "http://terminology.hl7.org/CodeSystem/allergyintolerance-verification"
      }, {
        "type": "depends-on",
        "display": "Code system Diagnosis Role",
        "resource": "http://terminology.hl7.org/CodeSystem/diagnosis-role"
      }, {
        "type": "depends-on",
        "display": "Code system LOINC",
        "resource": "http://loinc.org"
      }, {
        "type": "depends-on",
        "display": "Code system MedicationRequestCategory",
        "resource": "http://terminology.hl7.org/CodeSystem/medicationrequest-category"
      }, {
        "type": "depends-on",
        "display": "Code system ConditionVerificationStatusCodes",
        "resource": "http://terminology.hl7.org/CodeSystem/condition-ver-status"
      }, {
        "type": "depends-on",
        "display": "Code system SNOMEDCT",
        "resource": "http://snomed.info/sct"
      }, {
        "type": "depends-on",
        "display": "Code system RoleCode",
        "resource": "http://terminology.hl7.org/CodeSystem/v3-RoleCode"
      }, {
        "type": "depends-on",
        "display": "Value set Emergency Department Visit",
        "resource": "http://cts.nlm.nih.gov/fhir/ValueSet/2.16.840.1.113883.3.117.1.7.1.292"
      }, {
        "type": "depends-on",
        "display": "Value set Encounter Inpatient",
        "resource": "http://cts.nlm.nih.gov/fhir/ValueSet/2.16.840.1.113883.3.666.5.307"
      }, {
        "type": "depends-on",
        "display": "Value set Observation Services",
        "resource": "http://cts.nlm.nih.gov/fhir/ValueSet/2.16.840.1.113762.1.4.1111.143"
      } ],
      "parameter": [ {
        "name": "Measurement Period",
        "use": "in",
        "min": 0,
        "max": "1",
        "type": "Period"
      }, {
        "name": "Patient",
        "use": "out",
        "min": 0,
        "max": "1",
        "type": "Patient"
      }, {
        "name": "Inpatient Encounter",
        "use": "out",
        "min": 0,
        "max": "*",
        "type": "Encounter"
      } ],
      "dataRequirement": [ {
        "type": "Patient",
        "profile": [ "http://hl7.org/fhir/StructureDefinition/Patient" ]
      }, {
        "profile": [ "http://hl7.org/fhir/EncounterStatus" ],
        "mustSupport": [ "value" ]
      }, {
        "type": "Encounter",
        "profile": [ "http://hl7.org/fhir/StructureDefinition/Encounter" ],
        "mustSupport": [ "type", "status", "period" ],
        "codeFilter": [ {
          "path": "type",
          "valueSet": "http://cts.nlm.nih.gov/fhir/ValueSet/2.16.840.1.113883.3.666.5.307"
        } ]
      }, {
        "type": "Encounter",
        "profile": [ "http://hl7.org/fhir/StructureDefinition/Encounter" ],
        "mustSupport": [ "type", "period" ],
        "codeFilter": [ {
          "path": "type",
          "valueSet": "http://cts.nlm.nih.gov/fhir/ValueSet/2.16.840.1.113762.1.4.1111.143"
        } ]
      }, {
        "type": "Encounter",
        "profile": [ "http://hl7.org/fhir/StructureDefinition/Encounter" ],
        "mustSupport": [ "type", "status", "period" ],
        "codeFilter": [ {
          "path": "type",
          "valueSet": "http://cts.nlm.nih.gov/fhir/ValueSet/2.16.840.1.113883.3.117.1.7.1.292"
        } ]
      }, {
        "type": "Encounter",
        "profile": [ "http://hl7.org/fhir/Encounter" ],
        "mustSupport": [ "period" ]
      }, {
        "profile": [ "http://hl7.org/fhir/Encounter.Location" ],
        "mustSupport": [ "period" ]
      }, {
        "type": "dateTime",
        "profile": [ "http://hl7.org/fhir/dateTime" ],
        "mustSupport": [ "value" ]
      }, {
        "type": "instant",
        "profile": [ "http://hl7.org/fhir/instant" ],
        "mustSupport": [ "value" ]
      }, {
        "type": "date",
        "profile": [ "http://hl7.org/fhir/date" ],
        "mustSupport": [ "value" ]
      }, {
        "type": "Patient",
        "profile": [ "http://hl7.org/fhir/Patient" ],
        "mustSupport": [ "birthDate" ]
      }, {
        "type": "Range",
        "profile": [ "http://hl7.org/fhir/Range" ],
        "mustSupport": [ "low", "high" ]
      }, {
        "type": "id",
        "profile": [ "http://hl7.org/fhir/id" ],
        "mustSupport": [ "value" ]
      }, {
        "type": "string",
        "profile": [ "http://hl7.org/fhir/string" ],
        "mustSupport": [ "value" ]
      }, {
        "type": "Condition",
        "profile": [ "http://hl7.org/fhir/StructureDefinition/Condition" ],
        "mustSupport": [ "id" ]
      }, {
        "type": "Reference",
        "profile": [ "http://hl7.org/fhir/Reference" ],
        "mustSupport": [ "reference" ]
      }, {
        "type": "uri",
        "profile": [ "http://hl7.org/fhir/uri" ],
        "mustSupport": [ "value" ]
      }, {
        "type": "Extension",
        "profile": [ "http://hl7.org/fhir/Extension" ],
        "mustSupport": [ "value" ]
      }, {
        "type": "integer",
        "profile": [ "http://hl7.org/fhir/integer" ],
        "mustSupport": [ "value" ]
      }, {
        "type": "Location",
        "profile": [ "http://hl7.org/fhir/StructureDefinition/Location" ],
        "mustSupport": [ "id" ]
      }, {
        "type": "Provenance",
        "profile": [ "http://hl7.org/fhir/StructureDefinition/Provenance" ],
        "mustSupport": [ "target" ],
        "codeFilter": [ {
          "path": "target"
        } ]
      } ],
      "content": [ {
        "contentType": "text/cql",
        "data": ""
      }, {
        "contentType": "application/elm+xml",
        "data": ""
      }, {
        "contentType": "application/elm+json",
        "data": ""
      } ]
    },
    "request": {
      "method": "PUT",
      "url": "Library/MATGlobalCommonFunctionsFHIR4"
    }
  }, {
    "resource": {
      "resourceType": "ValueSet",
      "id": "2.16.840.1.113762.1.4.1111.143",
      "url": "http://cts.nlm.nih.gov/fhir/ValueSet/2.16.840.1.113762.1.4.1111.143",
      "identifier": [ {
        "system": "urn:ietf:rfc:3986",
        "value": "2.16.840.1.113762.1.4.1111.143"
      } ],
      "version": "20210220",
      "name": "ObservationServices",
      "title": "Observation Services",
      "status": "active",
      "experimental": false,
      "publisher": "NLM",
      "expansion": {
        "identifier": "20210506",
        "timestamp": "2021-07-19T17:22:06-06:00",
        "contains": [ {
          "system": "http://snomed.info/sct",
          "version": "2020-09",
          "code": "448951000124107",
          "display": "Admission to observation unit (procedure)"
        } ]
      }
    },
    "request": {
      "method": "PUT",
      "url": "ValueSet/2.16.840.1.113762.1.4.1111.143"
    }
  }, {
    "resource": {
      "resourceType": "Encounter",
      "id": "ip-HCC189",
      "meta": {
        "profile": [ "http://hl7.org/fhir/us/core/StructureDefinition/us-core-encounter" ]
      },
      "status": "finished",
      "class": {
        "system": "http://terminology.hl7.org/CodeSystem/v3-ActCode",
        "code": "AMB",
        "display": "ambulatory"
      },
      "type": [ {
        "coding": [ {
          "system": "http://www.ama-assn.org/go/cpt",
          "code": "99202"
        } ],
        "text": "Office or other outpatient visit for the evaluation and management of a new patient, which requires a medically appropriate history and/or examination and straightforward medical decision making. When using time for code selection, 15-29 minutes of total time is spent on the date of the encounter."
      } ],
      "subject": {
        "reference": "Patient/ip-HCC189"
      },
      "period": {
        "start": "2022-01-31",
        "end": "2022-01-31"
      }
    },
    "request": {
      "method": "PUT",
      "url": "Encounter/ip-HCC189"
    }
  }, {
    "resource": {
      "resourceType": "Library",
      "id": "FHIRHelpers",
      "extension": [ {
        "url": "http://hl7.org/fhir/us/cqfmeasures/StructureDefinition/cqfm-softwaresystem",
        "valueReference": {
          "reference": "Device/cqf-tooling"
        }
      } ],
      "url": "http://hl7.org/fhir/Library/FHIRHelpers",
      "version": "4.0.001",
      "name": "FHIRHelpers",
      "relatedArtifact": [ {
        "type": "depends-on",
        "display": "FHIR model information",
        "resource": "http://fhir.org/guides/cqf/common/Library/FHIR-ModelInfo|4.0.1"
      } ],
      "parameter": [ {
        "name": "Patient",
        "use": "out",
        "min": 0,
        "max": "1",
        "type": "Patient"
      } ],
      "dataRequirement": [ {
        "type": "Patient",
        "profile": [ "http://hl7.org/fhir/StructureDefinition/Patient" ]
      }, {
        "profile": [ "http://hl7.org/fhir/AccountStatus" ],
        "mustSupport": [ "value" ]
      }, {
        "profile": [ "http://hl7.org/fhir/ActionCardinalityBehavior" ],
        "mustSupport": [ "value" ]
      }, {
        "profile": [ "http://hl7.org/fhir/ActionConditionKind" ],
        "mustSupport": [ "value" ]
      }, {
        "profile": [ "http://hl7.org/fhir/ActionGroupingBehavior" ],
        "mustSupport": [ "value" ]
      }, {
        "profile": [ "http://hl7.org/fhir/ActionParticipantType" ],
        "mustSupport": [ "value" ]
      }, {
        "profile": [ "http://hl7.org/fhir/ActionPrecheckBehavior" ],
        "mustSupport": [ "value" ]
      }, {
        "profile": [ "http://hl7.org/fhir/ActionRelationshipType" ],
        "mustSupport": [ "value" ]
      }, {
        "profile": [ "http://hl7.org/fhir/ActionRequiredBehavior" ],
        "mustSupport": [ "value" ]
      }, {
        "profile": [ "http://hl7.org/fhir/ActionSelectionBehavior" ],
        "mustSupport": [ "value" ]
      }, {
        "profile": [ "http://hl7.org/fhir/ActivityDefinitionKind" ],
        "mustSupport": [ "value" ]
      }, {
        "profile": [ "http://hl7.org/fhir/ActivityParticipantType" ],
        "mustSupport": [ "value" ]
      }, {
        "profile": [ "http://hl7.org/fhir/AddressType" ],
        "mustSupport": [ "value" ]
      }, {
        "profile": [ "http://hl7.org/fhir/AddressUse" ],
        "mustSupport": [ "value" ]
      }, {
        "profile": [ "http://hl7.org/fhir/AdministrativeGender" ],
        "mustSupport": [ "value" ]
      }, {
        "profile": [ "http://hl7.org/fhir/AdverseEventActuality" ],
        "mustSupport": [ "value" ]
      }, {
        "profile": [ "http://hl7.org/fhir/AggregationMode" ],
        "mustSupport": [ "value" ]
      }, {
        "profile": [ "http://hl7.org/fhir/AllergyIntoleranceCategory" ],
        "mustSupport": [ "value" ]
      }, {
        "profile": [ "http://hl7.org/fhir/AllergyIntoleranceCriticality" ],
        "mustSupport": [ "value" ]
      }, {
        "profile": [ "http://hl7.org/fhir/AllergyIntoleranceSeverity" ],
        "mustSupport": [ "value" ]
      }, {
        "profile": [ "http://hl7.org/fhir/AllergyIntoleranceType" ],
        "mustSupport": [ "value" ]
      }, {
        "profile": [ "http://hl7.org/fhir/AppointmentStatus" ],
        "mustSupport": [ "value" ]
      }, {
        "profile": [ "http://hl7.org/fhir/AssertionDirectionType" ],
        "mustSupport": [ "value" ]
      }, {
        "profile": [ "http://hl7.org/fhir/AssertionOperatorType" ],
        "mustSupport": [ "value" ]
      }, {
        "profile": [ "http://hl7.org/fhir/AssertionResponseTypes" ],
        "mustSupport": [ "value" ]
      }, {
        "profile": [ "http://hl7.org/fhir/AuditEventAction" ],
        "mustSupport": [ "value" ]
      }, {
        "profile": [ "http://hl7.org/fhir/AuditEventAgentNetworkType" ],
        "mustSupport": [ "value" ]
      }, {
        "profile": [ "http://hl7.org/fhir/AuditEventOutcome" ],
        "mustSupport": [ "value" ]
      }, {
        "profile": [ "http://hl7.org/fhir/BindingStrength" ],
        "mustSupport": [ "value" ]
      }, {
        "profile": [ "http://hl7.org/fhir/BiologicallyDerivedProductCategory" ],
        "mustSupport": [ "value" ]
      }, {
        "profile": [ "http://hl7.org/fhir/BiologicallyDerivedProductStatus" ],
        "mustSupport": [ "value" ]
      }, {
        "profile": [ "http://hl7.org/fhir/BiologicallyDerivedProductStorageScale" ],
        "mustSupport": [ "value" ]
      }, {
        "profile": [ "http://hl7.org/fhir/BundleType" ],
        "mustSupport": [ "value" ]
      }, {
        "profile": [ "http://hl7.org/fhir/CapabilityStatementKind" ],
        "mustSupport": [ "value" ]
      }, {
        "profile": [ "http://hl7.org/fhir/CarePlanActivityKind" ],
        "mustSupport": [ "value" ]
      }, {
        "profile": [ "http://hl7.org/fhir/CarePlanActivityStatus" ],
        "mustSupport": [ "value" ]
      }, {
        "profile": [ "http://hl7.org/fhir/CarePlanIntent" ],
        "mustSupport": [ "value" ]
      }, {
        "profile": [ "http://hl7.org/fhir/CarePlanStatus" ],
        "mustSupport": [ "value" ]
      }, {
        "profile": [ "http://hl7.org/fhir/CareTeamStatus" ],
        "mustSupport": [ "value" ]
      }, {
        "profile": [ "http://hl7.org/fhir/CatalogEntryRelationType" ],
        "mustSupport": [ "value" ]
      }, {
        "profile": [ "http://hl7.org/fhir/ChargeItemDefinitionPriceComponentType" ],
        "mustSupport": [ "value" ]
      }, {
        "profile": [ "http://hl7.org/fhir/ChargeItemStatus" ],
        "mustSupport": [ "value" ]
      }, {
        "profile": [ "http://hl7.org/fhir/ClaimResponseStatus" ],
        "mustSupport": [ "value" ]
      }, {
        "profile": [ "http://hl7.org/fhir/ClaimStatus" ],
        "mustSupport": [ "value" ]
      }, {
        "profile": [ "http://hl7.org/fhir/ClinicalImpressionStatus" ],
        "mustSupport": [ "value" ]
      }, {
        "profile": [ "http://hl7.org/fhir/CodeSearchSupport" ],
        "mustSupport": [ "value" ]
      }, {
        "profile": [ "http://hl7.org/fhir/CodeSystemContentMode" ],
        "mustSupport": [ "value" ]
      }, {
        "profile": [ "http://hl7.org/fhir/CodeSystemHierarchyMeaning" ],
        "mustSupport": [ "value" ]
      }, {
        "profile": [ "http://hl7.org/fhir/CommunicationPriority" ],
        "mustSupport": [ "value" ]
      }, {
        "profile": [ "http://hl7.org/fhir/CommunicationRequestStatus" ],
        "mustSupport": [ "value" ]
      }, {
        "profile": [ "http://hl7.org/fhir/CommunicationStatus" ],
        "mustSupport": [ "value" ]
      }, {
        "profile": [ "http://hl7.org/fhir/CompartmentCode" ],
        "mustSupport": [ "value" ]
      }, {
        "profile": [ "http://hl7.org/fhir/CompartmentType" ],
        "mustSupport": [ "value" ]
      }, {
        "profile": [ "http://hl7.org/fhir/CompositionAttestationMode" ],
        "mustSupport": [ "value" ]
      }, {
        "profile": [ "http://hl7.org/fhir/CompositionStatus" ],
        "mustSupport": [ "value" ]
      }, {
        "profile": [ "http://hl7.org/fhir/ConceptMapEquivalence" ],
        "mustSupport": [ "value" ]
      }, {
        "profile": [ "http://hl7.org/fhir/ConceptMapGroupUnmappedMode" ],
        "mustSupport": [ "value" ]
      }, {
        "profile": [ "http://hl7.org/fhir/ConditionalDeleteStatus" ],
        "mustSupport": [ "value" ]
      }, {
        "profile": [ "http://hl7.org/fhir/ConditionalReadStatus" ],
        "mustSupport": [ "value" ]
      }, {
        "profile": [ "http://hl7.org/fhir/ConsentDataMeaning" ],
        "mustSupport": [ "value" ]
      }, {
        "profile": [ "http://hl7.org/fhir/ConsentProvisionType" ],
        "mustSupport": [ "value" ]
      }, {
        "profile": [ "http://hl7.org/fhir/ConsentState" ],
        "mustSupport": [ "value" ]
      }, {
        "profile": [ "http://hl7.org/fhir/ConstraintSeverity" ],
        "mustSupport": [ "value" ]
      }, {
        "profile": [ "http://hl7.org/fhir/ContactPointSystem" ],
        "mustSupport": [ "value" ]
      }, {
        "profile": [ "http://hl7.org/fhir/ContactPointUse" ],
        "mustSupport": [ "value" ]
      }, {
        "profile": [ "http://hl7.org/fhir/ContractPublicationStatus" ],
        "mustSupport": [ "value" ]
      }, {
        "profile": [ "http://hl7.org/fhir/ContractStatus" ],
        "mustSupport": [ "value" ]
      }, {
        "profile": [ "http://hl7.org/fhir/ContributorType" ],
        "mustSupport": [ "value" ]
      }, {
        "profile": [ "http://hl7.org/fhir/CoverageStatus" ],
        "mustSupport": [ "value" ]
      }, {
        "profile": [ "http://hl7.org/fhir/CurrencyCode" ],
        "mustSupport": [ "value" ]
      }, {
        "profile": [ "http://hl7.org/fhir/DayOfWeek" ],
        "mustSupport": [ "value" ]
      }, {
        "profile": [ "http://hl7.org/fhir/DaysOfWeek" ],
        "mustSupport": [ "value" ]
      }, {
        "profile": [ "http://hl7.org/fhir/DetectedIssueSeverity" ],
        "mustSupport": [ "value" ]
      }, {
        "profile": [ "http://hl7.org/fhir/DetectedIssueStatus" ],
        "mustSupport": [ "value" ]
      }, {
        "profile": [ "http://hl7.org/fhir/DeviceMetricCalibrationState" ],
        "mustSupport": [ "value" ]
      }, {
        "profile": [ "http://hl7.org/fhir/DeviceMetricCalibrationType" ],
        "mustSupport": [ "value" ]
      }, {
        "profile": [ "http://hl7.org/fhir/DeviceMetricCategory" ],
        "mustSupport": [ "value" ]
      }, {
        "profile": [ "http://hl7.org/fhir/DeviceMetricColor" ],
        "mustSupport": [ "value" ]
      }, {
        "profile": [ "http://hl7.org/fhir/DeviceMetricOperationalStatus" ],
        "mustSupport": [ "value" ]
      }, {
        "profile": [ "http://hl7.org/fhir/DeviceNameType" ],
        "mustSupport": [ "value" ]
      }, {
        "profile": [ "http://hl7.org/fhir/DeviceRequestStatus" ],
        "mustSupport": [ "value" ]
      }, {
        "profile": [ "http://hl7.org/fhir/DeviceUseStatementStatus" ],
        "mustSupport": [ "value" ]
      }, {
        "profile": [ "http://hl7.org/fhir/DiagnosticReportStatus" ],
        "mustSupport": [ "value" ]
      }, {
        "profile": [ "http://hl7.org/fhir/DiscriminatorType" ],
        "mustSupport": [ "value" ]
      }, {
        "profile": [ "http://hl7.org/fhir/DocumentConfidentiality" ],
        "mustSupport": [ "value" ]
      }, {
        "profile": [ "http://hl7.org/fhir/DocumentMode" ],
        "mustSupport": [ "value" ]
      }, {
        "profile": [ "http://hl7.org/fhir/DocumentReferenceStatus" ],
        "mustSupport": [ "value" ]
      }, {
        "profile": [ "http://hl7.org/fhir/DocumentRelationshipType" ],
        "mustSupport": [ "value" ]
      }, {
        "profile": [ "http://hl7.org/fhir/EligibilityRequestPurpose" ],
        "mustSupport": [ "value" ]
      }, {
        "profile": [ "http://hl7.org/fhir/EligibilityRequestStatus" ],
        "mustSupport": [ "value" ]
      }, {
        "profile": [ "http://hl7.org/fhir/EligibilityResponsePurpose" ],
        "mustSupport": [ "value" ]
      }, {
        "profile": [ "http://hl7.org/fhir/EligibilityResponseStatus" ],
        "mustSupport": [ "value" ]
      }, {
        "profile": [ "http://hl7.org/fhir/EnableWhenBehavior" ],
        "mustSupport": [ "value" ]
      }, {
        "profile": [ "http://hl7.org/fhir/EncounterLocationStatus" ],
        "mustSupport": [ "value" ]
      }, {
        "profile": [ "http://hl7.org/fhir/EncounterStatus" ],
        "mustSupport": [ "value" ]
      }, {
        "profile": [ "http://hl7.org/fhir/EndpointStatus" ],
        "mustSupport": [ "value" ]
      }, {
        "profile": [ "http://hl7.org/fhir/EnrollmentRequestStatus" ],
        "mustSupport": [ "value" ]
      }, {
        "profile": [ "http://hl7.org/fhir/EnrollmentResponseStatus" ],
        "mustSupport": [ "value" ]
      }, {
        "profile": [ "http://hl7.org/fhir/EpisodeOfCareStatus" ],
        "mustSupport": [ "value" ]
      }, {
        "profile": [ "http://hl7.org/fhir/EventCapabilityMode" ],
        "mustSupport": [ "value" ]
      }, {
        "profile": [ "http://hl7.org/fhir/EventTiming" ],
        "mustSupport": [ "value" ]
      }, {
        "profile": [ "http://hl7.org/fhir/EvidenceVariableType" ],
        "mustSupport": [ "value" ]
      }, {
        "profile": [ "http://hl7.org/fhir/ExampleScenarioActorType" ],
        "mustSupport": [ "value" ]
      }, {
        "profile": [ "http://hl7.org/fhir/ExplanationOfBenefitStatus" ],
        "mustSupport": [ "value" ]
      }, {
        "profile": [ "http://hl7.org/fhir/ExposureState" ],
        "mustSupport": [ "value" ]
      }, {
        "profile": [ "http://hl7.org/fhir/ExtensionContextType" ],
        "mustSupport": [ "value" ]
      }, {
        "profile": [ "http://hl7.org/fhir/FHIRAllTypes" ],
        "mustSupport": [ "value" ]
      }, {
        "profile": [ "http://hl7.org/fhir/FHIRDefinedType" ],
        "mustSupport": [ "value" ]
      }, {
        "profile": [ "http://hl7.org/fhir/FHIRDeviceStatus" ],
        "mustSupport": [ "value" ]
      }, {
        "profile": [ "http://hl7.org/fhir/FHIRResourceType" ],
        "mustSupport": [ "value" ]
      }, {
        "profile": [ "http://hl7.org/fhir/FHIRSubstanceStatus" ],
        "mustSupport": [ "value" ]
      }, {
        "profile": [ "http://hl7.org/fhir/FHIRVersion" ],
        "mustSupport": [ "value" ]
      }, {
        "profile": [ "http://hl7.org/fhir/FamilyHistoryStatus" ],
        "mustSupport": [ "value" ]
      }, {
        "profile": [ "http://hl7.org/fhir/FilterOperator" ],
        "mustSupport": [ "value" ]
      }, {
        "profile": [ "http://hl7.org/fhir/FlagStatus" ],
        "mustSupport": [ "value" ]
      }, {
        "profile": [ "http://hl7.org/fhir/GoalLifecycleStatus" ],
        "mustSupport": [ "value" ]
      }, {
        "profile": [ "http://hl7.org/fhir/GraphCompartmentRule" ],
        "mustSupport": [ "value" ]
      }, {
        "profile": [ "http://hl7.org/fhir/GraphCompartmentUse" ],
        "mustSupport": [ "value" ]
      }, {
        "profile": [ "http://hl7.org/fhir/GroupMeasure" ],
        "mustSupport": [ "value" ]
      }, {
        "profile": [ "http://hl7.org/fhir/GroupType" ],
        "mustSupport": [ "value" ]
      }, {
        "profile": [ "http://hl7.org/fhir/GuidanceResponseStatus" ],
        "mustSupport": [ "value" ]
      }, {
        "profile": [ "http://hl7.org/fhir/GuidePageGeneration" ],
        "mustSupport": [ "value" ]
      }, {
        "profile": [ "http://hl7.org/fhir/GuideParameterCode" ],
        "mustSupport": [ "value" ]
      }, {
        "profile": [ "http://hl7.org/fhir/HTTPVerb" ],
        "mustSupport": [ "value" ]
      }, {
        "profile": [ "http://hl7.org/fhir/IdentifierUse" ],
        "mustSupport": [ "value" ]
      }, {
        "profile": [ "http://hl7.org/fhir/IdentityAssuranceLevel" ],
        "mustSupport": [ "value" ]
      }, {
        "profile": [ "http://hl7.org/fhir/ImagingStudyStatus" ],
        "mustSupport": [ "value" ]
      }, {
        "profile": [ "http://hl7.org/fhir/ImmunizationEvaluationStatus" ],
        "mustSupport": [ "value" ]
      }, {
        "profile": [ "http://hl7.org/fhir/ImmunizationStatus" ],
        "mustSupport": [ "value" ]
      }, {
        "profile": [ "http://hl7.org/fhir/InvoicePriceComponentType" ],
        "mustSupport": [ "value" ]
      }, {
        "profile": [ "http://hl7.org/fhir/InvoiceStatus" ],
        "mustSupport": [ "value" ]
      }, {
        "profile": [ "http://hl7.org/fhir/IssueSeverity" ],
        "mustSupport": [ "value" ]
      }, {
        "profile": [ "http://hl7.org/fhir/IssueType" ],
        "mustSupport": [ "value" ]
      }, {
        "profile": [ "http://hl7.org/fhir/LinkType" ],
        "mustSupport": [ "value" ]
      }, {
        "profile": [ "http://hl7.org/fhir/LinkageType" ],
        "mustSupport": [ "value" ]
      }, {
        "profile": [ "http://hl7.org/fhir/ListMode" ],
        "mustSupport": [ "value" ]
      }, {
        "profile": [ "http://hl7.org/fhir/ListStatus" ],
        "mustSupport": [ "value" ]
      }, {
        "profile": [ "http://hl7.org/fhir/LocationMode" ],
        "mustSupport": [ "value" ]
      }, {
        "profile": [ "http://hl7.org/fhir/LocationStatus" ],
        "mustSupport": [ "value" ]
      }, {
        "profile": [ "http://hl7.org/fhir/MeasureReportStatus" ],
        "mustSupport": [ "value" ]
      }, {
        "profile": [ "http://hl7.org/fhir/MeasureReportType" ],
        "mustSupport": [ "value" ]
      }, {
        "profile": [ "http://hl7.org/fhir/MediaStatus" ],
        "mustSupport": [ "value" ]
      }, {
        "profile": [ "http://hl7.org/fhir/MedicationAdministrationStatus" ],
        "mustSupport": [ "value" ]
      }, {
        "profile": [ "http://hl7.org/fhir/MedicationDispenseStatus" ],
        "mustSupport": [ "value" ]
      }, {
        "profile": [ "http://hl7.org/fhir/MedicationKnowledgeStatus" ],
        "mustSupport": [ "value" ]
      }, {
        "profile": [ "http://hl7.org/fhir/MedicationRequestIntent" ],
        "mustSupport": [ "value" ]
      }, {
        "profile": [ "http://hl7.org/fhir/MedicationRequestPriority" ],
        "mustSupport": [ "value" ]
      }, {
        "profile": [ "http://hl7.org/fhir/MedicationRequestStatus" ],
        "mustSupport": [ "value" ]
      }, {
        "profile": [ "http://hl7.org/fhir/MedicationStatementStatus" ],
        "mustSupport": [ "value" ]
      }, {
        "profile": [ "http://hl7.org/fhir/MedicationStatus" ],
        "mustSupport": [ "value" ]
      }, {
        "profile": [ "http://hl7.org/fhir/MessageSignificanceCategory" ],
        "mustSupport": [ "value" ]
      }, {
        "profile": [ "http://hl7.org/fhir/Messageheader_Response_Request" ],
        "mustSupport": [ "value" ]
      }, {
        "profile": [ "http://hl7.org/fhir/MimeType" ],
        "mustSupport": [ "value" ]
      }, {
        "profile": [ "http://hl7.org/fhir/NameUse" ],
        "mustSupport": [ "value" ]
      }, {
        "profile": [ "http://hl7.org/fhir/NamingSystemIdentifierType" ],
        "mustSupport": [ "value" ]
      }, {
        "profile": [ "http://hl7.org/fhir/NamingSystemType" ],
        "mustSupport": [ "value" ]
      }, {
        "profile": [ "http://hl7.org/fhir/NarrativeStatus" ],
        "mustSupport": [ "value" ]
      }, {
        "profile": [ "http://hl7.org/fhir/NoteType" ],
        "mustSupport": [ "value" ]
      }, {
        "profile": [ "http://hl7.org/fhir/NutritiionOrderIntent" ],
        "mustSupport": [ "value" ]
      }, {
        "profile": [ "http://hl7.org/fhir/NutritionOrderStatus" ],
        "mustSupport": [ "value" ]
      }, {
        "profile": [ "http://hl7.org/fhir/ObservationDataType" ],
        "mustSupport": [ "value" ]
      }, {
        "profile": [ "http://hl7.org/fhir/ObservationRangeCategory" ],
        "mustSupport": [ "value" ]
      }, {
        "profile": [ "http://hl7.org/fhir/ObservationStatus" ],
        "mustSupport": [ "value" ]
      }, {
        "profile": [ "http://hl7.org/fhir/OperationKind" ],
        "mustSupport": [ "value" ]
      }, {
        "profile": [ "http://hl7.org/fhir/OperationParameterUse" ],
        "mustSupport": [ "value" ]
      }, {
        "profile": [ "http://hl7.org/fhir/OrientationType" ],
        "mustSupport": [ "value" ]
      }, {
        "profile": [ "http://hl7.org/fhir/ParameterUse" ],
        "mustSupport": [ "value" ]
      }, {
        "profile": [ "http://hl7.org/fhir/ParticipantRequired" ],
        "mustSupport": [ "value" ]
      }, {
        "profile": [ "http://hl7.org/fhir/ParticipantStatus" ],
        "mustSupport": [ "value" ]
      }, {
        "profile": [ "http://hl7.org/fhir/ParticipationStatus" ],
        "mustSupport": [ "value" ]
      }, {
        "profile": [ "http://hl7.org/fhir/PaymentNoticeStatus" ],
        "mustSupport": [ "value" ]
      }, {
        "profile": [ "http://hl7.org/fhir/PaymentReconciliationStatus" ],
        "mustSupport": [ "value" ]
      }, {
        "profile": [ "http://hl7.org/fhir/ProcedureStatus" ],
        "mustSupport": [ "value" ]
      }, {
        "profile": [ "http://hl7.org/fhir/PropertyRepresentation" ],
        "mustSupport": [ "value" ]
      }, {
        "profile": [ "http://hl7.org/fhir/PropertyType" ],
        "mustSupport": [ "value" ]
      }, {
        "profile": [ "http://hl7.org/fhir/ProvenanceEntityRole" ],
        "mustSupport": [ "value" ]
      }, {
        "profile": [ "http://hl7.org/fhir/PublicationStatus" ],
        "mustSupport": [ "value" ]
      }, {
        "profile": [ "http://hl7.org/fhir/QualityType" ],
        "mustSupport": [ "value" ]
      }, {
        "profile": [ "http://hl7.org/fhir/QuantityComparator" ],
        "mustSupport": [ "value" ]
      }, {
        "profile": [ "http://hl7.org/fhir/QuestionnaireItemOperator" ],
        "mustSupport": [ "value" ]
      }, {
        "profile": [ "http://hl7.org/fhir/QuestionnaireItemType" ],
        "mustSupport": [ "value" ]
      }, {
        "profile": [ "http://hl7.org/fhir/QuestionnaireResponseStatus" ],
        "mustSupport": [ "value" ]
      }, {
        "profile": [ "http://hl7.org/fhir/ReferenceHandlingPolicy" ],
        "mustSupport": [ "value" ]
      }, {
        "profile": [ "http://hl7.org/fhir/ReferenceVersionRules" ],
        "mustSupport": [ "value" ]
      }, {
        "profile": [ "http://hl7.org/fhir/ReferredDocumentStatus" ],
        "mustSupport": [ "value" ]
      }, {
        "profile": [ "http://hl7.org/fhir/RelatedArtifactType" ],
        "mustSupport": [ "value" ]
      }, {
        "profile": [ "http://hl7.org/fhir/RemittanceOutcome" ],
        "mustSupport": [ "value" ]
      }, {
        "profile": [ "http://hl7.org/fhir/RepositoryType" ],
        "mustSupport": [ "value" ]
      }, {
        "profile": [ "http://hl7.org/fhir/RequestIntent" ],
        "mustSupport": [ "value" ]
      }, {
        "profile": [ "http://hl7.org/fhir/RequestPriority" ],
        "mustSupport": [ "value" ]
      }, {
        "profile": [ "http://hl7.org/fhir/RequestStatus" ],
        "mustSupport": [ "value" ]
      }, {
        "profile": [ "http://hl7.org/fhir/ResearchElementType" ],
        "mustSupport": [ "value" ]
      }, {
        "profile": [ "http://hl7.org/fhir/ResearchStudyStatus" ],
        "mustSupport": [ "value" ]
      }, {
        "profile": [ "http://hl7.org/fhir/ResearchSubjectStatus" ],
        "mustSupport": [ "value" ]
      }, {
        "profile": [ "http://hl7.org/fhir/ResourceType" ],
        "mustSupport": [ "value" ]
      }, {
        "profile": [ "http://hl7.org/fhir/ResourceVersionPolicy" ],
        "mustSupport": [ "value" ]
      }, {
        "profile": [ "http://hl7.org/fhir/ResponseType" ],
        "mustSupport": [ "value" ]
      }, {
        "profile": [ "http://hl7.org/fhir/RestfulCapabilityMode" ],
        "mustSupport": [ "value" ]
      }, {
        "profile": [ "http://hl7.org/fhir/RiskAssessmentStatus" ],
        "mustSupport": [ "value" ]
      }, {
        "profile": [ "http://hl7.org/fhir/SPDXLicense" ],
        "mustSupport": [ "value" ]
      }, {
        "profile": [ "http://hl7.org/fhir/SearchComparator" ],
        "mustSupport": [ "value" ]
      }, {
        "profile": [ "http://hl7.org/fhir/SearchEntryMode" ],
        "mustSupport": [ "value" ]
      }, {
        "profile": [ "http://hl7.org/fhir/SearchModifierCode" ],
        "mustSupport": [ "value" ]
      }, {
        "profile": [ "http://hl7.org/fhir/SearchParamType" ],
        "mustSupport": [ "value" ]
      }, {
        "profile": [ "http://hl7.org/fhir/SectionMode" ],
        "mustSupport": [ "value" ]
      }, {
        "profile": [ "http://hl7.org/fhir/SequenceType" ],
        "mustSupport": [ "value" ]
      }, {
        "profile": [ "http://hl7.org/fhir/ServiceRequestIntent" ],
        "mustSupport": [ "value" ]
      }, {
        "profile": [ "http://hl7.org/fhir/ServiceRequestPriority" ],
        "mustSupport": [ "value" ]
      }, {
        "profile": [ "http://hl7.org/fhir/ServiceRequestStatus" ],
        "mustSupport": [ "value" ]
      }, {
        "profile": [ "http://hl7.org/fhir/SlicingRules" ],
        "mustSupport": [ "value" ]
      }, {
        "profile": [ "http://hl7.org/fhir/SlotStatus" ],
        "mustSupport": [ "value" ]
      }, {
        "profile": [ "http://hl7.org/fhir/SortDirection" ],
        "mustSupport": [ "value" ]
      }, {
        "profile": [ "http://hl7.org/fhir/SpecimenContainedPreference" ],
        "mustSupport": [ "value" ]
      }, {
        "profile": [ "http://hl7.org/fhir/SpecimenStatus" ],
        "mustSupport": [ "value" ]
      }, {
        "profile": [ "http://hl7.org/fhir/Status" ],
        "mustSupport": [ "value" ]
      }, {
        "profile": [ "http://hl7.org/fhir/StrandType" ],
        "mustSupport": [ "value" ]
      }, {
        "profile": [ "http://hl7.org/fhir/StructureDefinitionKind" ],
        "mustSupport": [ "value" ]
      }, {
        "profile": [ "http://hl7.org/fhir/StructureMapContextType" ],
        "mustSupport": [ "value" ]
      }, {
        "profile": [ "http://hl7.org/fhir/StructureMapGroupTypeMode" ],
        "mustSupport": [ "value" ]
      }, {
        "profile": [ "http://hl7.org/fhir/StructureMapInputMode" ],
        "mustSupport": [ "value" ]
      }, {
        "profile": [ "http://hl7.org/fhir/StructureMapModelMode" ],
        "mustSupport": [ "value" ]
      }, {
        "profile": [ "http://hl7.org/fhir/StructureMapSourceListMode" ],
        "mustSupport": [ "value" ]
      }, {
        "profile": [ "http://hl7.org/fhir/StructureMapTargetListMode" ],
        "mustSupport": [ "value" ]
      }, {
        "profile": [ "http://hl7.org/fhir/StructureMapTransform" ],
        "mustSupport": [ "value" ]
      }, {
        "profile": [ "http://hl7.org/fhir/SubscriptionChannelType" ],
        "mustSupport": [ "value" ]
      }, {
        "type": "SubscriptionStatus",
        "profile": [ "http://hl7.org/fhir/SubscriptionStatus" ],
        "mustSupport": [ "value" ]
      }, {
        "profile": [ "http://hl7.org/fhir/SupplyDeliveryStatus" ],
        "mustSupport": [ "value" ]
      }, {
        "profile": [ "http://hl7.org/fhir/SupplyRequestStatus" ],
        "mustSupport": [ "value" ]
      }, {
        "profile": [ "http://hl7.org/fhir/SystemRestfulInteraction" ],
        "mustSupport": [ "value" ]
      }, {
        "profile": [ "http://hl7.org/fhir/TaskIntent" ],
        "mustSupport": [ "value" ]
      }, {
        "profile": [ "http://hl7.org/fhir/TaskPriority" ],
        "mustSupport": [ "value" ]
      }, {
        "profile": [ "http://hl7.org/fhir/TaskStatus" ],
        "mustSupport": [ "value" ]
      }, {
        "profile": [ "http://hl7.org/fhir/TestReportActionResult" ],
        "mustSupport": [ "value" ]
      }, {
        "profile": [ "http://hl7.org/fhir/TestReportParticipantType" ],
        "mustSupport": [ "value" ]
      }, {
        "profile": [ "http://hl7.org/fhir/TestReportResult" ],
        "mustSupport": [ "value" ]
      }, {
        "profile": [ "http://hl7.org/fhir/TestReportStatus" ],
        "mustSupport": [ "value" ]
      }, {
        "profile": [ "http://hl7.org/fhir/TestScriptRequestMethodCode" ],
        "mustSupport": [ "value" ]
      }, {
        "profile": [ "http://hl7.org/fhir/TriggerType" ],
        "mustSupport": [ "value" ]
      }, {
        "profile": [ "http://hl7.org/fhir/TypeDerivationRule" ],
        "mustSupport": [ "value" ]
      }, {
        "profile": [ "http://hl7.org/fhir/TypeRestfulInteraction" ],
        "mustSupport": [ "value" ]
      }, {
        "profile": [ "http://hl7.org/fhir/UDIEntryType" ],
        "mustSupport": [ "value" ]
      }, {
        "profile": [ "http://hl7.org/fhir/UnitsOfTime" ],
        "mustSupport": [ "value" ]
      }, {
        "profile": [ "http://hl7.org/fhir/Use" ],
        "mustSupport": [ "value" ]
      }, {
        "profile": [ "http://hl7.org/fhir/VariableType" ],
        "mustSupport": [ "value" ]
      }, {
        "profile": [ "http://hl7.org/fhir/VisionBase" ],
        "mustSupport": [ "value" ]
      }, {
        "profile": [ "http://hl7.org/fhir/VisionEyes" ],
        "mustSupport": [ "value" ]
      }, {
        "profile": [ "http://hl7.org/fhir/VisionStatus" ],
        "mustSupport": [ "value" ]
      }, {
        "profile": [ "http://hl7.org/fhir/XPathUsageType" ],
        "mustSupport": [ "value" ]
      }, {
        "type": "base64Binary",
        "profile": [ "http://hl7.org/fhir/base64Binary" ],
        "mustSupport": [ "value" ]
      }, {
        "type": "id",
        "profile": [ "http://hl7.org/fhir/id" ],
        "mustSupport": [ "value" ]
      }, {
        "type": "boolean",
        "profile": [ "http://hl7.org/fhir/boolean" ],
        "mustSupport": [ "value" ]
      }, {
        "type": "date",
        "profile": [ "http://hl7.org/fhir/date" ],
        "mustSupport": [ "value" ]
      }, {
        "type": "dateTime",
        "profile": [ "http://hl7.org/fhir/dateTime" ],
        "mustSupport": [ "value" ]
      }, {
        "type": "decimal",
        "profile": [ "http://hl7.org/fhir/decimal" ],
        "mustSupport": [ "value" ]
      }, {
        "type": "instant",
        "profile": [ "http://hl7.org/fhir/instant" ],
        "mustSupport": [ "value" ]
      }, {
        "type": "integer",
        "profile": [ "http://hl7.org/fhir/integer" ],
        "mustSupport": [ "value" ]
      }, {
        "type": "string",
        "profile": [ "http://hl7.org/fhir/string" ],
        "mustSupport": [ "value" ]
      }, {
        "type": "time",
        "profile": [ "http://hl7.org/fhir/time" ],
        "mustSupport": [ "value" ]
      }, {
        "type": "uri",
        "profile": [ "http://hl7.org/fhir/uri" ],
        "mustSupport": [ "value" ]
      }, {
        "type": "xhtml",
        "profile": [ "http://hl7.org/fhir/xhtml" ],
        "mustSupport": [ "value" ]
      } ],
      "content": [ {
        "contentType": "text/cql",
        "data": ""
      }, {
        "contentType": "application/elm+xml",
        "data": ""
      }, {
        "contentType": "application/elm+json",
        "data": ""
      } ]
    },
    "request": {
      "method": "PUT",
      "url": "Library/FHIRHelpers"
    }
  }, {
    "resource": {
      "resourceType": "ValueSet",
      "id": "2.16.840.1.113883.3.464.1003.101.12.1086",
      "url": "http://cts.nlm.nih.gov/fhir/ValueSet/2.16.840.1.113883.3.464.1003.101.12.1086",
      "identifier": [ {
        "system": "urn:ietf:rfc:3986",
        "value": "2.16.840.1.113883.3.464.1003.101.12.1086"
      } ],
      "version": "20190315",
      "name": "Observation",
      "title": "Observation",
      "status": "active",
      "experimental": false,
      "publisher": "NLM",
      "expansion": {
        "identifier": "20210506",
        "timestamp": "2021-07-19T17:22:06-06:00",
        "contains": [ {
          "system": "http://www.ama-assn.org/go/cpt",
          "version": "2021",
          "code": "99217",
          "display": "Observation care discharge day management (This code is to be utilized to report all services provided to a patient on discharge from outpatient hospital \"observation status\" if the discharge is on other than the initial date of \"observation status.\" To report services to a patient designated as \"observation status\" or \"inpatient status\" and discharged on the same date, use the codes for Observation or Inpatient Care Services [including Admission and Discharge Services, 99234-99236 as appropriate.])"
        }, {
          "system": "http://www.ama-assn.org/go/cpt",
          "version": "2021",
          "code": "99218",
          "display": "Initial observation care, per day, for the evaluation and management of a patient which requires these 3 key components: A detailed or comprehensive history; A detailed or comprehensive examination; and Medical decision making that is straightforward or of low complexity. Counseling and/or coordination of care with other physicians, other qualified health care professionals, or agencies are provided consistent with the nature of the problem(s) and the patient's and/or family's needs. Usually, the problem(s) requiring admission to outpatient hospital \"observation status\" are of low severity. Typically, 30 minutes are spent at the bedside and on the patient's hospital floor or unit."
        }, {
          "system": "http://www.ama-assn.org/go/cpt",
          "version": "2021",
          "code": "99219",
          "display": "Initial observation care, per day, for the evaluation and management of a patient, which requires these 3 key components: A comprehensive history; A comprehensive examination; and Medical decision making of moderate complexity. Counseling and/or coordination of care with other physicians, other qualified health care professionals, or agencies are provided consistent with the nature of the problem(s) and the patient's and/or family's needs. Usually, the problem(s) requiring admission to outpatient hospital \"observation status\" are of moderate severity. Typically, 50 minutes are spent at the bedside and on the patient's hospital floor or unit."
        }, {
          "system": "http://www.ama-assn.org/go/cpt",
          "version": "2021",
          "code": "99220",
          "display": "Initial observation care, per day, for the evaluation and management of a patient, which requires these 3 key components: A comprehensive history; A comprehensive examination; and Medical decision making of high complexity. Counseling and/or coordination of care with other physicians, other qualified health care professionals, or agencies are provided consistent with the nature of the problem(s) and the patient's and/or family's needs. Usually, the problem(s) requiring admission to outpatient hospital \"observation status\" are of high severity. Typically, 70 minutes are spent at the bedside and on the patient's hospital floor or unit."
        } ]
      }
    },
    "request": {
      "method": "PUT",
      "url": "ValueSet/2.16.840.1.113883.3.464.1003.101.12.1086"
    }
  }, {
    "resource": {
      "resourceType": "ValueSet",
      "id": "2.16.840.1.113883.3.464.1003.101.12.1083",
      "url": "http://cts.nlm.nih.gov/fhir/ValueSet/2.16.840.1.113883.3.464.1003.101.12.1083",
      "identifier": [ {
        "system": "urn:ietf:rfc:3986",
        "value": "2.16.840.1.113883.3.464.1003.101.12.1083"
      } ],
      "version": "20190315",
      "name": "AcuteInpatient",
      "title": "Acute Inpatient",
      "status": "active",
      "experimental": false,
      "publisher": "NLM",
      "expansion": {
        "identifier": "20210506",
        "timestamp": "2021-07-19T17:22:04-06:00",
        "contains": [ {
          "system": "http://www.ama-assn.org/go/cpt",
          "version": "2021",
          "code": "99221",
          "display": "Initial hospital care, per day, for the evaluation and management of a patient, which requires these 3 key components: A detailed or comprehensive history; A detailed or comprehensive examination; and Medical decision making that is straightforward or of low complexity. Counseling and/or coordination of care with other physicians, other qualified health care professionals, or agencies are provided consistent with the nature of the problem(s) and the patient's and/or family's needs. Usually, the problem(s) requiring admission are of low severity. Typically, 30 minutes are spent at the bedside and on the patient's hospital floor or unit."
        }, {
          "system": "http://www.ama-assn.org/go/cpt",
          "version": "2021",
          "code": "99222",
          "display": "Initial hospital care, per day, for the evaluation and management of a patient, which requires these 3 key components: A comprehensive history; A comprehensive examination; and Medical decision making of moderate complexity. Counseling and/or coordination of care with other physicians, other qualified health care professionals, or agencies are provided consistent with the nature of the problem(s) and the patient's and/or family's needs. Usually, the problem(s) requiring admission are of moderate severity. Typically, 50 minutes are spent at the bedside and on the patient's hospital floor or unit."
        }, {
          "system": "http://www.ama-assn.org/go/cpt",
          "version": "2021",
          "code": "99223",
          "display": "Initial hospital care, per day, for the evaluation and management of a patient, which requires these 3 key components: A comprehensive history; A comprehensive examination; and Medical decision making of high complexity. Counseling and/or coordination of care with other physicians, other qualified health care professionals, or agencies are provided consistent with the nature of the problem(s) and the patient's and/or family's needs. Usually, the problem(s) requiring admission are of high severity. Typically, 70 minutes are spent at the bedside and on the patient's hospital floor or unit."
        }, {
          "system": "http://www.ama-assn.org/go/cpt",
          "version": "2021",
          "code": "99231",
          "display": "Subsequent hospital care, per day, for the evaluation and management of a patient, which requires at least 2 of these 3 key components: A problem focused interval history; A problem focused examination; Medical decision making that is straightforward or of low complexity. Counseling and/or coordination of care with other physicians, other qualified health care professionals, or agencies are provided consistent with the nature of the problem(s) and the patient's and/or family's needs. Usually, the patient is stable, recovering or improving. Typically, 15 minutes are spent at the bedside and on the patient's hospital floor or unit."
        }, {
          "system": "http://www.ama-assn.org/go/cpt",
          "version": "2021",
          "code": "99232",
          "display": "Subsequent hospital care, per day, for the evaluation and management of a patient, which requires at least 2 of these 3 key components: An expanded problem focused interval history; An expanded problem focused examination; Medical decision making of moderate complexity. Counseling and/or coordination of care with other physicians, other qualified health care professionals, or agencies are provided consistent with the nature of the problem(s) and the patient's and/or family's needs. Usually, the patient is responding inadequately to therapy or has developed a minor complication. Typically, 25 minutes are spent at the bedside and on the patient's hospital floor or unit."
        }, {
          "system": "http://www.ama-assn.org/go/cpt",
          "version": "2021",
          "code": "99233",
          "display": "Subsequent hospital care, per day, for the evaluation and management of a patient, which requires at least 2 of these 3 key components: A detailed interval history; A detailed examination; Medical decision making of high complexity. Counseling and/or coordination of care with other physicians, other qualified health care professionals, or agencies are provided consistent with the nature of the problem(s) and the patient's and/or family's needs. Usually, the patient is unstable or has developed a significant complication or a significant new problem. Typically, 35 minutes are spent at the bedside and on the patient's hospital floor or unit."
        }, {
          "system": "http://www.ama-assn.org/go/cpt",
          "version": "2021",
          "code": "99238",
          "display": "Hospital discharge day management; 30 minutes or less"
        }, {
          "system": "http://www.ama-assn.org/go/cpt",
          "version": "2021",
          "code": "99239",
          "display": "Hospital discharge day management; more than 30 minutes"
        }, {
          "system": "http://www.ama-assn.org/go/cpt",
          "version": "2021",
          "code": "99251",
          "display": "Inpatient consultation for a new or established patient, which requires these 3 key components: A problem focused history; A problem focused examination; and Straightforward medical decision making. Counseling and/or coordination of care with other physicians, other qualified health care professionals, or agencies are provided consistent with the nature of the problem(s) and the patient's and/or family's needs. Usually, the presenting problem(s) are self limited or minor. Typically, 20 minutes are spent at the bedside and on the patient's hospital floor or unit."
        }, {
          "system": "http://www.ama-assn.org/go/cpt",
          "version": "2021",
          "code": "99252",
          "display": "Inpatient consultation for a new or established patient, which requires these 3 key components: An expanded problem focused history; An expanded problem focused examination; and Straightforward medical decision making. Counseling and/or coordination of care with other physicians, other qualified health care professionals, or agencies are provided consistent with the nature of the problem(s) and the patient's and/or family's needs. Usually, the presenting problem(s) are of low severity. Typically, 40 minutes are spent at the bedside and on the patient's hospital floor or unit."
        }, {
          "system": "http://www.ama-assn.org/go/cpt",
          "version": "2021",
          "code": "99253",
          "display": "Inpatient consultation for a new or established patient, which requires these 3 key components: A detailed history; A detailed examination; and Medical decision making of low complexity. Counseling and/or coordination of care with other physicians, other qualified health care professionals, or agencies are provided consistent with the nature of the problem(s) and the patient's and/or family's needs. Usually, the presenting problem(s) are of moderate severity. Typically, 55 minutes are spent at the bedside and on the patient's hospital floor or unit."
        }, {
          "system": "http://www.ama-assn.org/go/cpt",
          "version": "2021",
          "code": "99254",
          "display": "Inpatient consultation for a new or established patient, which requires these 3 key components: A comprehensive history; A comprehensive examination; and Medical decision making of moderate complexity. Counseling and/or coordination of care with other physicians, other qualified health care professionals, or agencies are provided consistent with the nature of the problem(s) and the patient's and/or family's needs. Usually, the presenting problem(s) are of moderate to high severity. Typically, 80 minutes are spent at the bedside and on the patient's hospital floor or unit."
        }, {
          "system": "http://www.ama-assn.org/go/cpt",
          "version": "2021",
          "code": "99255",
          "display": "Inpatient consultation for a new or established patient, which requires these 3 key components: A comprehensive history; A comprehensive examination; and Medical decision making of high complexity. Counseling and/or coordination of care with other physicians, other qualified health care professionals, or agencies are provided consistent with the nature of the problem(s) and the patient's and/or family's needs. Usually, the presenting problem(s) are of moderate to high severity. Typically, 110 minutes are spent at the bedside and on the patient's hospital floor or unit."
        }, {
          "system": "http://www.ama-assn.org/go/cpt",
          "version": "2021",
          "code": "99291",
          "display": "Critical care, evaluation and management of the critically ill or critically injured patient; first 30-74 minutes"
        }, {
          "system": "http://snomed.info/sct",
          "version": "2020-09",
          "code": "10378005",
          "display": "Hospital admission, emergency, from emergency room, accidental injury (procedure)"
        }, {
          "system": "http://snomed.info/sct",
          "version": "2020-09",
          "code": "112689000",
          "display": "Hospital admission, elective, with complete pre-admission work-up (procedure)"
        }, {
          "system": "http://snomed.info/sct",
          "version": "2020-09",
          "code": "1505002",
          "display": "Hospital admission for isolation (procedure)"
        }, {
          "system": "http://snomed.info/sct",
          "version": "2020-09",
          "code": "15584006",
          "display": "Hospital admission, elective, with partial pre-admission work-up (procedure)"
        }, {
          "system": "http://snomed.info/sct",
          "version": "2020-09",
          "code": "18083007",
          "display": "Hospital admission, emergency, indirect (procedure)"
        }, {
          "system": "http://snomed.info/sct",
          "version": "2020-09",
          "code": "183450002",
          "display": "Admission to burn unit (procedure)"
        }, {
          "system": "http://snomed.info/sct",
          "version": "2020-09",
          "code": "183452005",
          "display": "Emergency hospital admission (procedure)"
        }, {
          "system": "http://snomed.info/sct",
          "version": "2020-09",
          "code": "183481006",
          "display": "Non-urgent hospital admission (procedure)"
        }, {
          "system": "http://snomed.info/sct",
          "version": "2020-09",
          "code": "183487005",
          "display": "Non-urgent medical admission (procedure)"
        }, {
          "system": "http://snomed.info/sct",
          "version": "2020-09",
          "code": "183488000",
          "display": "Non-urgent surgical admission (procedure)"
        }, {
          "system": "http://snomed.info/sct",
          "version": "2020-09",
          "code": "183489008",
          "display": "Non-urgent psychiatric admission (procedure)"
        }, {
          "system": "http://snomed.info/sct",
          "version": "2020-09",
          "code": "183491000",
          "display": "Non-urgent geriatric admission (procedure)"
        }, {
          "system": "http://snomed.info/sct",
          "version": "2020-09",
          "code": "183492007",
          "display": "Non-urgent pediatric admission (procedure)"
        }, {
          "system": "http://snomed.info/sct",
          "version": "2020-09",
          "code": "183493002",
          "display": "Non-urgent gynecological admission (procedure)"
        }, {
          "system": "http://snomed.info/sct",
          "version": "2020-09",
          "code": "183494008",
          "display": "Non-urgent obstetric admission (procedure)"
        }, {
          "system": "http://snomed.info/sct",
          "version": "2020-09",
          "code": "183495009",
          "display": "Non-urgent orthopedic admission (procedure)"
        }, {
          "system": "http://snomed.info/sct",
          "version": "2020-09",
          "code": "183496005",
          "display": "Non-urgent ear, nose and throat admission (procedure)"
        }, {
          "system": "http://snomed.info/sct",
          "version": "2020-09",
          "code": "183497001",
          "display": "Non-urgent trauma admission (procedure)"
        }, {
          "system": "http://snomed.info/sct",
          "version": "2020-09",
          "code": "183498006",
          "display": "Non-urgent ophthalmological admission (procedure)"
        }, {
          "system": "http://snomed.info/sct",
          "version": "2020-09",
          "code": "183499003",
          "display": "Non-urgent rheumatology admission (procedure)"
        }, {
          "system": "http://snomed.info/sct",
          "version": "2020-09",
          "code": "183500007",
          "display": "Non-urgent dermatology admission (procedure)"
        }, {
          "system": "http://snomed.info/sct",
          "version": "2020-09",
          "code": "183501006",
          "display": "Non-urgent neurology admission (procedure)"
        }, {
          "system": "http://snomed.info/sct",
          "version": "2020-09",
          "code": "183502004",
          "display": "Non-urgent urology admission (procedure)"
        }, {
          "system": "http://snomed.info/sct",
          "version": "2020-09",
          "code": "183503009",
          "display": "Non-urgent radiotherapy admission (procedure)"
        }, {
          "system": "http://snomed.info/sct",
          "version": "2020-09",
          "code": "183504003",
          "display": "Non-urgent hematology admission (procedure)"
        }, {
          "system": "http://snomed.info/sct",
          "version": "2020-09",
          "code": "183505002",
          "display": "Non-urgent plastic surgery admission (procedure)"
        }, {
          "system": "http://snomed.info/sct",
          "version": "2020-09",
          "code": "183506001",
          "display": "Non-urgent diabetic admission (procedure)"
        }, {
          "system": "http://snomed.info/sct",
          "version": "2020-09",
          "code": "183507005",
          "display": "Non-urgent respiratory admission (procedure)"
        }, {
          "system": "http://snomed.info/sct",
          "version": "2020-09",
          "code": "183508000",
          "display": "Non-urgent psychogeriatric admission (procedure)"
        }, {
          "system": "http://snomed.info/sct",
          "version": "2020-09",
          "code": "183509008",
          "display": "Non-urgent renal medicine admission (procedure)"
        }, {
          "system": "http://snomed.info/sct",
          "version": "2020-09",
          "code": "183510003",
          "display": "Non-urgent neurosurgical admission (procedure)"
        }, {
          "system": "http://snomed.info/sct",
          "version": "2020-09",
          "code": "183511004",
          "display": "Non-urgent cardiothoracic admission (procedure)"
        }, {
          "system": "http://snomed.info/sct",
          "version": "2020-09",
          "code": "183512006",
          "display": "Non-urgent oral surgical admission (procedure)"
        }, {
          "system": "http://snomed.info/sct",
          "version": "2020-09",
          "code": "19951005",
          "display": "Hospital admission, emergency, from emergency room, medical nature (procedure)"
        }, {
          "system": "http://snomed.info/sct",
          "version": "2020-09",
          "code": "2252009",
          "display": "Hospital admission, urgent, 48 hours (procedure)"
        }, {
          "system": "http://snomed.info/sct",
          "version": "2020-09",
          "code": "235313004",
          "display": "Non-emergency appendectomy (procedure)"
        }, {
          "system": "http://snomed.info/sct",
          "version": "2020-09",
          "code": "25986004",
          "display": "Hospital admission, under police custody (procedure)"
        }, {
          "system": "http://snomed.info/sct",
          "version": "2020-09",
          "code": "287927002",
          "display": "Dilatation and curettage: routine (procedure)"
        }, {
          "system": "http://snomed.info/sct",
          "version": "2020-09",
          "code": "304566005",
          "display": "Admission for treatment (procedure)"
        }, {
          "system": "http://snomed.info/sct",
          "version": "2020-09",
          "code": "305337004",
          "display": "Admission to community hospital (procedure)"
        }, {
          "system": "http://snomed.info/sct",
          "version": "2020-09",
          "code": "305338009",
          "display": "Admission to general practice hospital (procedure)"
        }, {
          "system": "http://snomed.info/sct",
          "version": "2020-09",
          "code": "305339001",
          "display": "Admission to private hospital (procedure)"
        }, {
          "system": "http://snomed.info/sct",
          "version": "2020-09",
          "code": "305341000",
          "display": "Admission to tertiary referral hospital (procedure)"
        }, {
          "system": "http://snomed.info/sct",
          "version": "2020-09",
          "code": "305342007",
          "display": "Admission to ward (procedure)"
        }, {
          "system": "http://snomed.info/sct",
          "version": "2020-09",
          "code": "305350003",
          "display": "Admission to anesthetic department (procedure)"
        }, {
          "system": "http://snomed.info/sct",
          "version": "2020-09",
          "code": "305354007",
          "display": "Admission to medical department (procedure)"
        }, {
          "system": "http://snomed.info/sct",
          "version": "2020-09",
          "code": "305355008",
          "display": "Admission to clinical allergy department (procedure)"
        }, {
          "system": "http://snomed.info/sct",
          "version": "2020-09",
          "code": "305356009",
          "display": "Admission to audiology department (procedure)"
        }, {
          "system": "http://snomed.info/sct",
          "version": "2020-09",
          "code": "305357000",
          "display": "Admission to cardiology department (procedure)"
        }, {
          "system": "http://snomed.info/sct",
          "version": "2020-09",
          "code": "305358005",
          "display": "Admission to chest medicine department (procedure)"
        }, {
          "system": "http://snomed.info/sct",
          "version": "2020-09",
          "code": "305359002",
          "display": "Admission to thoracic medicine department (procedure)"
        }, {
          "system": "http://snomed.info/sct",
          "version": "2020-09",
          "code": "305360007",
          "display": "Admission to respiratory medicine department (procedure)"
        }, {
          "system": "http://snomed.info/sct",
          "version": "2020-09",
          "code": "305361006",
          "display": "Admission to clinical immunology department (procedure)"
        }, {
          "system": "http://snomed.info/sct",
          "version": "2020-09",
          "code": "305362004",
          "display": "Admission to clinical neurophysiology department (procedure)"
        }, {
          "system": "http://snomed.info/sct",
          "version": "2020-09",
          "code": "305363009",
          "display": "Admission to clinical pharmacology department (procedure)"
        }, {
          "system": "http://snomed.info/sct",
          "version": "2020-09",
          "code": "305364003",
          "display": "Admission to clinical physiology department (procedure)"
        }, {
          "system": "http://snomed.info/sct",
          "version": "2020-09",
          "code": "305365002",
          "display": "Admission to dermatology department (procedure)"
        }, {
          "system": "http://snomed.info/sct",
          "version": "2020-09",
          "code": "305366001",
          "display": "Admission to endocrinology department (procedure)"
        }, {
          "system": "http://snomed.info/sct",
          "version": "2020-09",
          "code": "305367005",
          "display": "Admission to gastroenterology department (procedure)"
        }, {
          "system": "http://snomed.info/sct",
          "version": "2020-09",
          "code": "305368000",
          "display": "Admission to general medical department (procedure)"
        }, {
          "system": "http://snomed.info/sct",
          "version": "2020-09",
          "code": "305369008",
          "display": "Admission to genetics department (procedure)"
        }, {
          "system": "http://snomed.info/sct",
          "version": "2020-09",
          "code": "305370009",
          "display": "Admission to clinical genetics department (procedure)"
        }, {
          "system": "http://snomed.info/sct",
          "version": "2020-09",
          "code": "305371008",
          "display": "Admission to clinical cytogenetics department (procedure)"
        }, {
          "system": "http://snomed.info/sct",
          "version": "2020-09",
          "code": "305372001",
          "display": "Admission to clinical molecular genetics department (procedure)"
        }, {
          "system": "http://snomed.info/sct",
          "version": "2020-09",
          "code": "305374000",
          "display": "Admission to genitourinary medicine department (procedure)"
        }, {
          "system": "http://snomed.info/sct",
          "version": "2020-09",
          "code": "305375004",
          "display": "Admission to care of the elderly department (procedure)"
        }, {
          "system": "http://snomed.info/sct",
          "version": "2020-09",
          "code": "305376003",
          "display": "Admission to infectious diseases department (procedure)"
        }, {
          "system": "http://snomed.info/sct",
          "version": "2020-09",
          "code": "305377007",
          "display": "Admission to medical ophthalmology department (procedure)"
        }, {
          "system": "http://snomed.info/sct",
          "version": "2020-09",
          "code": "305378002",
          "display": "Admission to nephrology department (procedure)"
        }, {
          "system": "http://snomed.info/sct",
          "version": "2020-09",
          "code": "305379005",
          "display": "Admission to neurology department (procedure)"
        }, {
          "system": "http://snomed.info/sct",
          "version": "2020-09",
          "code": "305380008",
          "display": "Admission to nuclear medicine department (procedure)"
        }, {
          "system": "http://snomed.info/sct",
          "version": "2020-09",
          "code": "305382000",
          "display": "Admission to rehabilitation department (procedure)"
        }, {
          "system": "http://snomed.info/sct",
          "version": "2020-09",
          "code": "305383005",
          "display": "Admission to rheumatology department (procedure)"
        }, {
          "system": "http://snomed.info/sct",
          "version": "2020-09",
          "code": "305384004",
          "display": "Admission to obstetrics and gynecology department (procedure)"
        }, {
          "system": "http://snomed.info/sct",
          "version": "2020-09",
          "code": "305385003",
          "display": "Admission to gynecology department (procedure)"
        }, {
          "system": "http://snomed.info/sct",
          "version": "2020-09",
          "code": "305386002",
          "display": "Admission to obstetrics department (procedure)"
        }, {
          "system": "http://snomed.info/sct",
          "version": "2020-09",
          "code": "305387006",
          "display": "Admission to pediatric department (procedure)"
        }, {
          "system": "http://snomed.info/sct",
          "version": "2020-09",
          "code": "305388001",
          "display": "Admission to special care baby unit (procedure)"
        }, {
          "system": "http://snomed.info/sct",
          "version": "2020-09",
          "code": "305389009",
          "display": "Admission to pediatric neurology department (procedure)"
        }, {
          "system": "http://snomed.info/sct",
          "version": "2020-09",
          "code": "305390000",
          "display": "Admission to pediatric oncology department (procedure)"
        }, {
          "system": "http://snomed.info/sct",
          "version": "2020-09",
          "code": "305391001",
          "display": "Admission to pain management department (procedure)"
        }, {
          "system": "http://snomed.info/sct",
          "version": "2020-09",
          "code": "305392008",
          "display": "Admission to pathology department (procedure)"
        }, {
          "system": "http://snomed.info/sct",
          "version": "2020-09",
          "code": "305393003",
          "display": "Admission to blood transfusion department (procedure)"
        }, {
          "system": "http://snomed.info/sct",
          "version": "2020-09",
          "code": "305394009",
          "display": "Admission to chemical pathology department (procedure)"
        }, {
          "system": "http://snomed.info/sct",
          "version": "2020-09",
          "code": "305395005",
          "display": "Admission to general pathology department (procedure)"
        }, {
          "system": "http://snomed.info/sct",
          "version": "2020-09",
          "code": "305396006",
          "display": "Admission to hematology department (procedure)"
        }, {
          "system": "http://snomed.info/sct",
          "version": "2020-09",
          "code": "305397002",
          "display": "Admission to medical microbiology department (procedure)"
        }, {
          "system": "http://snomed.info/sct",
          "version": "2020-09",
          "code": "305399004",
          "display": "Admission to neuropathology department (procedure)"
        }, {
          "system": "http://snomed.info/sct",
          "version": "2020-09",
          "code": "305400006",
          "display": "Admission to psychiatry department (procedure)"
        }, {
          "system": "http://snomed.info/sct",
          "version": "2020-09",
          "code": "305401005",
          "display": "Admission to child and adolescent psychiatry department (procedure)"
        }, {
          "system": "http://snomed.info/sct",
          "version": "2020-09",
          "code": "305402003",
          "display": "Admission to forensic psychiatry department (procedure)"
        }, {
          "system": "http://snomed.info/sct",
          "version": "2020-09",
          "code": "305403008",
          "display": "Admission to psychogeriatric department (procedure)"
        }, {
          "system": "http://snomed.info/sct",
          "version": "2020-09",
          "code": "305404002",
          "display": "Admission to mental handicap psychiatry department (procedure)"
        }, {
          "system": "http://snomed.info/sct",
          "version": "2020-09",
          "code": "305405001",
          "display": "Admission to rehabilitation psychiatry department (procedure)"
        }, {
          "system": "http://snomed.info/sct",
          "version": "2020-09",
          "code": "305406000",
          "display": "Admission to radiology department (procedure)"
        }, {
          "system": "http://snomed.info/sct",
          "version": "2020-09",
          "code": "305407009",
          "display": "Admission to occupational health department (procedure)"
        }, {
          "system": "http://snomed.info/sct",
          "version": "2020-09",
          "code": "305408004",
          "display": "Admission to surgical department (procedure)"
        }, {
          "system": "http://snomed.info/sct",
          "version": "2020-09",
          "code": "305409007",
          "display": "Admission to breast surgery department (procedure)"
        }, {
          "system": "http://snomed.info/sct",
          "version": "2020-09",
          "code": "305410002",
          "display": "Admission to cardiothoracic surgery department (procedure)"
        }, {
          "system": "http://snomed.info/sct",
          "version": "2020-09",
          "code": "305411003",
          "display": "Admission to thoracic surgery department (procedure)"
        }, {
          "system": "http://snomed.info/sct",
          "version": "2020-09",
          "code": "305412005",
          "display": "Admission to cardiac surgery department (procedure)"
        }, {
          "system": "http://snomed.info/sct",
          "version": "2020-09",
          "code": "305413000",
          "display": "Admission to dental surgery department (procedure)"
        }, {
          "system": "http://snomed.info/sct",
          "version": "2020-09",
          "code": "305414006",
          "display": "Admission to orthodontics department (procedure)"
        }, {
          "system": "http://snomed.info/sct",
          "version": "2020-09",
          "code": "305415007",
          "display": "Admission to pediatric dentistry department (procedure)"
        }, {
          "system": "http://snomed.info/sct",
          "version": "2020-09",
          "code": "305416008",
          "display": "Admission to restorative dentistry department (procedure)"
        }, {
          "system": "http://snomed.info/sct",
          "version": "2020-09",
          "code": "305417004",
          "display": "Admission to ear, nose and throat department (procedure)"
        }, {
          "system": "http://snomed.info/sct",
          "version": "2020-09",
          "code": "305418009",
          "display": "Admission to endocrine surgery department (procedure)"
        }, {
          "system": "http://snomed.info/sct",
          "version": "2020-09",
          "code": "305419001",
          "display": "Admission to gastrointestinal surgery department (procedure)"
        }, {
          "system": "http://snomed.info/sct",
          "version": "2020-09",
          "code": "305420007",
          "display": "Admission to general gastrointestinal surgery department (procedure)"
        }, {
          "system": "http://snomed.info/sct",
          "version": "2020-09",
          "code": "305421006",
          "display": "Admission to upper gastrointestinal surgery department (procedure)"
        }, {
          "system": "http://snomed.info/sct",
          "version": "2020-09",
          "code": "305422004",
          "display": "Admission to colorectal surgery department (procedure)"
        }, {
          "system": "http://snomed.info/sct",
          "version": "2020-09",
          "code": "305423009",
          "display": "Admission to general surgical department (procedure)"
        }, {
          "system": "http://snomed.info/sct",
          "version": "2020-09",
          "code": "305424003",
          "display": "Admission to hepatobiliary surgical department (procedure)"
        }, {
          "system": "http://snomed.info/sct",
          "version": "2020-09",
          "code": "305425002",
          "display": "Admission to neurosurgical department (procedure)"
        }, {
          "system": "http://snomed.info/sct",
          "version": "2020-09",
          "code": "305426001",
          "display": "Admission to ophthalmology department (procedure)"
        }, {
          "system": "http://snomed.info/sct",
          "version": "2020-09",
          "code": "305427005",
          "display": "Admission to oral surgery department (procedure)"
        }, {
          "system": "http://snomed.info/sct",
          "version": "2020-09",
          "code": "305428000",
          "display": "Admission to orthopedic department (procedure)"
        }, {
          "system": "http://snomed.info/sct",
          "version": "2020-09",
          "code": "305429008",
          "display": "Admission to pancreatic surgery department (procedure)"
        }, {
          "system": "http://snomed.info/sct",
          "version": "2020-09",
          "code": "305430003",
          "display": "Admission to pediatric surgical department (procedure)"
        }, {
          "system": "http://snomed.info/sct",
          "version": "2020-09",
          "code": "305431004",
          "display": "Admission to plastic surgery department (procedure)"
        }, {
          "system": "http://snomed.info/sct",
          "version": "2020-09",
          "code": "305432006",
          "display": "Admission to surgical transplant department (procedure)"
        }, {
          "system": "http://snomed.info/sct",
          "version": "2020-09",
          "code": "305433001",
          "display": "Admission to trauma surgery department (procedure)"
        }, {
          "system": "http://snomed.info/sct",
          "version": "2020-09",
          "code": "305434007",
          "display": "Admission to urology department (procedure)"
        }, {
          "system": "http://snomed.info/sct",
          "version": "2020-09",
          "code": "305435008",
          "display": "Admission to vascular surgery department (procedure)"
        }, {
          "system": "http://snomed.info/sct",
          "version": "2020-09",
          "code": "306732000",
          "display": "Admission to general dental surgery department (procedure)"
        }, {
          "system": "http://snomed.info/sct",
          "version": "2020-09",
          "code": "306803007",
          "display": "Admission to stroke unit (procedure)"
        }, {
          "system": "http://snomed.info/sct",
          "version": "2020-09",
          "code": "306967009",
          "display": "Admission to hand surgery department (procedure)"
        }, {
          "system": "http://snomed.info/sct",
          "version": "2020-09",
          "code": "308251003",
          "display": "Admission to clinical oncology department (procedure)"
        }, {
          "system": "http://snomed.info/sct",
          "version": "2020-09",
          "code": "308252005",
          "display": "Admission to radiotherapy department (procedure)"
        }, {
          "system": "http://snomed.info/sct",
          "version": "2020-09",
          "code": "308253000",
          "display": "Admission to diabetic department (procedure)"
        }, {
          "system": "http://snomed.info/sct",
          "version": "2020-09",
          "code": "310361003",
          "display": "Non-urgent cardiological admission (procedure)"
        }, {
          "system": "http://snomed.info/sct",
          "version": "2020-09",
          "code": "3241000175106",
          "display": "Hospital admission from non-health care facility (procedure)"
        }, {
          "system": "http://snomed.info/sct",
          "version": "2020-09",
          "code": "32485007",
          "display": "Hospital admission (procedure)"
        }, {
          "system": "http://snomed.info/sct",
          "version": "2020-09",
          "code": "373113001",
          "display": "Routine procedure (procedure)"
        }, {
          "system": "http://snomed.info/sct",
          "version": "2020-09",
          "code": "397769005",
          "display": "Unexpected admission to high dependency unit (procedure)"
        }, {
          "system": "http://snomed.info/sct",
          "version": "2020-09",
          "code": "398162007",
          "display": "Admission to high dependency unit (procedure)"
        }, {
          "system": "http://snomed.info/sct",
          "version": "2020-09",
          "code": "405614004",
          "display": "Unexpected hospital admission (procedure)"
        }, {
          "system": "http://snomed.info/sct",
          "version": "2020-09",
          "code": "417005",
          "display": "Hospital re-admission (procedure)"
        }, {
          "system": "http://snomed.info/sct",
          "version": "2020-09",
          "code": "432621000124105",
          "display": "Hospital admission from dialysis facility (procedure)"
        }, {
          "system": "http://snomed.info/sct",
          "version": "2020-09",
          "code": "442281000124108",
          "display": "Emergency hospital admission from observation unit (procedure)"
        }, {
          "system": "http://snomed.info/sct",
          "version": "2020-09",
          "code": "447941000124106",
          "display": "Hospital admission of newborn (procedure)"
        }, {
          "system": "http://snomed.info/sct",
          "version": "2020-09",
          "code": "448421000124105",
          "display": "Hospital admission, transfer from physician office (procedure)"
        }, {
          "system": "http://snomed.info/sct",
          "version": "2020-09",
          "code": "448431000124108",
          "display": "Hospital admission, transfer from assisted living facility (procedure)"
        }, {
          "system": "http://snomed.info/sct",
          "version": "2020-09",
          "code": "448441000124103",
          "display": "Hospital admission, transfer from intermediate care facility (procedure)"
        }, {
          "system": "http://snomed.info/sct",
          "version": "2020-09",
          "code": "448851000124103",
          "display": "Hospital admission from observation unit (procedure)"
        }, {
          "system": "http://snomed.info/sct",
          "version": "2020-09",
          "code": "4563007",
          "display": "Hospital admission, transfer from other hospital or health care facility (procedure)"
        }, {
          "system": "http://snomed.info/sct",
          "version": "2020-09",
          "code": "45702004",
          "display": "Hospital admission, precertified by medical audit action (procedure)"
        }, {
          "system": "http://snomed.info/sct",
          "version": "2020-09",
          "code": "47348005",
          "display": "Hospital admission, mother, for observation, delivered outside of hospital (procedure)"
        }, {
          "system": "http://snomed.info/sct",
          "version": "2020-09",
          "code": "48183000",
          "display": "Hospital admission, special (procedure)"
        }, {
          "system": "http://snomed.info/sct",
          "version": "2020-09",
          "code": "50699000",
          "display": "Hospital admission, short-term (procedure)"
        }, {
          "system": "http://snomed.info/sct",
          "version": "2020-09",
          "code": "51032003",
          "display": "Hospital admission, donor for transplant organ (procedure)"
        }, {
          "system": "http://snomed.info/sct",
          "version": "2020-09",
          "code": "51501005",
          "display": "Hospital admission, parent, for in-hospital child care (procedure)"
        }, {
          "system": "http://snomed.info/sct",
          "version": "2020-09",
          "code": "5161006",
          "display": "Specialty clinic admission (procedure)"
        }, {
          "system": "http://snomed.info/sct",
          "version": "2020-09",
          "code": "52748007",
          "display": "Hospital admission, involuntary (procedure)"
        }, {
          "system": "http://snomed.info/sct",
          "version": "2020-09",
          "code": "60059000",
          "display": "Hospital admission, infant, for observation, delivered outside of hospital (procedure)"
        }, {
          "system": "http://snomed.info/sct",
          "version": "2020-09",
          "code": "63551005",
          "display": "Hospital admission, from remote area, by means of special transportation (procedure)"
        }, {
          "system": "http://snomed.info/sct",
          "version": "2020-09",
          "code": "699124006",
          "display": "Admission to substance misuse detoxification center (procedure)"
        }, {
          "system": "http://snomed.info/sct",
          "version": "2020-09",
          "code": "70755000",
          "display": "Hospital admission, by legal authority (commitment) (procedure)"
        }, {
          "system": "http://snomed.info/sct",
          "version": "2020-09",
          "code": "71290004",
          "display": "Hospital admission, limited to designated procedures (procedure)"
        }, {
          "system": "http://snomed.info/sct",
          "version": "2020-09",
          "code": "73607007",
          "display": "Hospital admission, emergency, from emergency room (procedure)"
        }, {
          "system": "http://snomed.info/sct",
          "version": "2020-09",
          "code": "74857009",
          "display": "Hospital admission, short-term, 24 hours (procedure)"
        }, {
          "system": "http://snomed.info/sct",
          "version": "2020-09",
          "code": "76193006",
          "display": "Routinely scheduled operation (procedure)"
        }, {
          "system": "http://snomed.info/sct",
          "version": "2020-09",
          "code": "76464004",
          "display": "Hospital admission, for observation (procedure)"
        }, {
          "system": "http://snomed.info/sct",
          "version": "2020-09",
          "code": "78680009",
          "display": "Hospital admission, emergency, direct (procedure)"
        }, {
          "system": "http://snomed.info/sct",
          "version": "2020-09",
          "code": "81672003",
          "display": "Hospital admission, elective, without pre-admission work-up (procedure)"
        }, {
          "system": "http://snomed.info/sct",
          "version": "2020-09",
          "code": "82942009",
          "display": "Hospital admission, blood donor (procedure)"
        }, {
          "system": "http://snomed.info/sct",
          "version": "2020-09",
          "code": "8715000",
          "display": "Hospital admission, elective (procedure)"
        } ]
      }
    },
    "request": {
      "method": "PUT",
      "url": "ValueSet/2.16.840.1.113883.3.464.1003.101.12.1083"
    }
  }, {
    "resource": {
      "resourceType": "ValueSet",
      "id": "2.16.840.1.113883.3.464.1003.101.12.1084",
      "url": "http://cts.nlm.nih.gov/fhir/ValueSet/2.16.840.1.113883.3.464.1003.101.12.1084",
      "identifier": [ {
        "system": "urn:ietf:rfc:3986",
        "value": "2.16.840.1.113883.3.464.1003.101.12.1084"
      } ],
      "version": "20190315",
      "name": "NonacuteInpatient",
      "title": "Nonacute Inpatient",
      "status": "active",
      "experimental": false,
      "publisher": "NLM",
      "expansion": {
        "identifier": "20210506",
        "timestamp": "2021-07-19T17:22:06-06:00",
        "contains": [ {
          "system": "http://www.ama-assn.org/go/cpt",
          "version": "2021",
          "code": "99304",
          "display": "Initial nursing facility care, per day, for the evaluation and management of a patient, which requires these 3 key components: A detailed or comprehensive history; A detailed or comprehensive examination; and Medical decision making that is straightforward or of low complexity. Counseling and/or coordination of care with other physicians, other qualified health care professionals, or agencies are provided consistent with the nature of the problem(s) and the patient's and/or family's needs. Usually, the problem(s) requiring admission are of low severity. Typically, 25 minutes are spent at the bedside and on the patient's facility floor or unit."
        }, {
          "system": "http://www.ama-assn.org/go/cpt",
          "version": "2021",
          "code": "99305",
          "display": "Initial nursing facility care, per day, for the evaluation and management of a patient, which requires these 3 key components: A comprehensive history; A comprehensive examination; and Medical decision making of moderate complexity. Counseling and/or coordination of care with other physicians, other qualified health care professionals, or agencies are provided consistent with the nature of the problem(s) and the patient's and/or family's needs. Usually, the problem(s) requiring admission are of moderate severity. Typically, 35 minutes are spent at the bedside and on the patient's facility floor or unit."
        }, {
          "system": "http://www.ama-assn.org/go/cpt",
          "version": "2021",
          "code": "99306",
          "display": "Initial nursing facility care, per day, for the evaluation and management of a patient, which requires these 3 key components: A comprehensive history; A comprehensive examination; and Medical decision making of high complexity. Counseling and/or coordination of care with other physicians, other qualified health care professionals, or agencies are provided consistent with the nature of the problem(s) and the patient's and/or family's needs. Usually, the problem(s) requiring admission are of high severity. Typically, 45 minutes are spent at the bedside and on the patient's facility floor or unit."
        }, {
          "system": "http://www.ama-assn.org/go/cpt",
          "version": "2021",
          "code": "99307",
          "display": "Subsequent nursing facility care, per day, for the evaluation and management of a patient, which requires at least 2 of these 3 key components: A problem focused interval history; A problem focused examination; Straightforward medical decision making. Counseling and/or coordination of care with other physicians, other qualified health care professionals, or agencies are provided consistent with the nature of the problem(s) and the patient's and/or family's needs. Usually, the patient is stable, recovering, or improving. Typically, 10 minutes are spent at the bedside and on the patient's facility floor or unit."
        }, {
          "system": "http://www.ama-assn.org/go/cpt",
          "version": "2021",
          "code": "99308",
          "display": "Subsequent nursing facility care, per day, for the evaluation and management of a patient, which requires at least 2 of these 3 key components: An expanded problem focused interval history; An expanded problem focused examination; Medical decision making of low complexity. Counseling and/or coordination of care with other physicians, other qualified health care professionals, or agencies are provided consistent with the nature of the problem(s) and the patient's and/or family's needs. Usually, the patient is responding inadequately to therapy or has developed a minor complication. Typically, 15 minutes are spent at the bedside and on the patient's facility floor or unit."
        }, {
          "system": "http://www.ama-assn.org/go/cpt",
          "version": "2021",
          "code": "99309",
          "display": "Subsequent nursing facility care, per day, for the evaluation and management of a patient, which requires at least 2 of these 3 key components: A detailed interval history; A detailed examination; Medical decision making of moderate complexity. Counseling and/or coordination of care with other physicians, other qualified health care professionals, or agencies are provided consistent with the nature of the problem(s) and the patient's and/or family's needs. Usually, the patient has developed a significant complication or a significant new problem. Typically, 25 minutes are spent at the bedside and on the patient's facility floor or unit."
        }, {
          "system": "http://www.ama-assn.org/go/cpt",
          "version": "2021",
          "code": "99310",
          "display": "Subsequent nursing facility care, per day, for the evaluation and management of a patient, which requires at least 2 of these 3 key components: A comprehensive interval history; A comprehensive examination; Medical decision making of high complexity. Counseling and/or coordination of care with other physicians, other qualified health care professionals, or agencies are provided consistent with the nature of the problem(s) and the patient's and/or family's needs. The patient may be unstable or may have developed a significant new problem requiring immediate physician attention. Typically, 35 minutes are spent at the bedside and on the patient's facility floor or unit."
        }, {
          "system": "http://www.ama-assn.org/go/cpt",
          "version": "2021",
          "code": "99315",
          "display": "Nursing facility discharge day management; 30 minutes or less"
        }, {
          "system": "http://www.ama-assn.org/go/cpt",
          "version": "2021",
          "code": "99316",
          "display": "Nursing facility discharge day management; more than 30 minutes"
        }, {
          "system": "http://www.ama-assn.org/go/cpt",
          "version": "2021",
          "code": "99318",
          "display": "Evaluation and management of a patient involving an annual nursing facility assessment, which requires these 3 key components: A detailed interval history; A comprehensive examination; and Medical decision making that is of low to moderate complexity. Counseling and/or coordination of care with other physicians, other qualified health care professionals, or agencies are provided consistent with the nature of the problem(s) and the patient's and/or family's needs. Usually, the patient is stable, recovering, or improving. Typically, 30 minutes are spent at the bedside and on the patient's facility floor or unit."
        }, {
          "system": "http://www.ama-assn.org/go/cpt",
          "version": "2021",
          "code": "99324",
          "display": "Domiciliary or rest home visit for the evaluation and management of a new patient, which requires these 3 key components: A problem focused history; A problem focused examination; and Straightforward medical decision making. Counseling and/or coordination of care with other physicians, other qualified health care professionals, or agencies are provided consistent with the nature of the problem(s) and the patient's and/or family's needs. Usually, the presenting problem(s) are of low severity. Typically, 20 minutes are spent with the patient and/or family or caregiver."
        }, {
          "system": "http://www.ama-assn.org/go/cpt",
          "version": "2021",
          "code": "99325",
          "display": "Domiciliary or rest home visit for the evaluation and management of a new patient, which requires these 3 key components: An expanded problem focused history; An expanded problem focused examination; and Medical decision making of low complexity. Counseling and/or coordination of care with other physicians, other qualified health care professionals, or agencies are provided consistent with the nature of the problem(s) and the patient's and/or family's needs. Usually, the presenting problem(s) are of moderate severity. Typically, 30 minutes are spent with the patient and/or family or caregiver."
        }, {
          "system": "http://www.ama-assn.org/go/cpt",
          "version": "2021",
          "code": "99326",
          "display": "Domiciliary or rest home visit for the evaluation and management of a new patient, which requires these 3 key components: A detailed history; A detailed examination; and Medical decision making of moderate complexity. Counseling and/or coordination of care with other physicians, other qualified health care professionals, or agencies are provided consistent with the nature of the problem(s) and the patient's and/or family's needs. Usually, the presenting problem(s) are of moderate to high severity. Typically, 45 minutes are spent with the patient and/or family or caregiver."
        }, {
          "system": "http://www.ama-assn.org/go/cpt",
          "version": "2021",
          "code": "99327",
          "display": "Domiciliary or rest home visit for the evaluation and management of a new patient, which requires these 3 key components: A comprehensive history; A comprehensive examination; and Medical decision making of moderate complexity. Counseling and/or coordination of care with other physicians, other qualified health care professionals, or agencies are provided consistent with the nature of the problem(s) and the patient's and/or family's needs. Usually, the presenting problem(s) are of high severity. Typically, 60 minutes are spent with the patient and/or family or caregiver."
        }, {
          "system": "http://www.ama-assn.org/go/cpt",
          "version": "2021",
          "code": "99328",
          "display": "Domiciliary or rest home visit for the evaluation and management of a new patient, which requires these 3 key components: A comprehensive history; A comprehensive examination; and Medical decision making of high complexity. Counseling and/or coordination of care with other physicians, other qualified health care professionals, or agencies are provided consistent with the nature of the problem(s) and the patient's and/or family's needs. Usually, the patient is unstable or has developed a significant new problem requiring immediate physician attention. Typically, 75 minutes are spent with the patient and/or family or caregiver."
        }, {
          "system": "http://www.ama-assn.org/go/cpt",
          "version": "2021",
          "code": "99334",
          "display": "Domiciliary or rest home visit for the evaluation and management of an established patient, which requires at least 2 of these 3 key components: A problem focused interval history; A problem focused examination; Straightforward medical decision making. Counseling and/or coordination of care with other physicians, other qualified health care professionals, or agencies are provided consistent with the nature of the problem(s) and the patient's and/or family's needs. Usually, the presenting problem(s) are self-limited or minor. Typically, 15 minutes are spent with the patient and/or family or caregiver."
        }, {
          "system": "http://www.ama-assn.org/go/cpt",
          "version": "2021",
          "code": "99335",
          "display": "Domiciliary or rest home visit for the evaluation and management of an established patient, which requires at least 2 of these 3 key components: An expanded problem focused interval history; An expanded problem focused examination; Medical decision making of low complexity. Counseling and/or coordination of care with other physicians, other qualified health care professionals, or agencies are provided consistent with the nature of the problem(s) and the patient's and/or family's needs. Usually, the presenting problem(s) are of low to moderate severity. Typically, 25 minutes are spent with the patient and/or family or caregiver."
        }, {
          "system": "http://www.ama-assn.org/go/cpt",
          "version": "2021",
          "code": "99336",
          "display": "Domiciliary or rest home visit for the evaluation and management of an established patient, which requires at least 2 of these 3 key components: A detailed interval history; A detailed examination; Medical decision making of moderate complexity. Counseling and/or coordination of care with other physicians, other qualified health care professionals, or agencies are provided consistent with the nature of the problem(s) and the patient's and/or family's needs. Usually, the presenting problem(s) are of moderate to high severity. Typically, 40 minutes are spent with the patient and/or family or caregiver."
        }, {
          "system": "http://www.ama-assn.org/go/cpt",
          "version": "2021",
          "code": "99337",
          "display": "Domiciliary or rest home visit for the evaluation and management of an established patient, which requires at least 2 of these 3 key components: A comprehensive interval history; A comprehensive examination; Medical decision making of moderate to high complexity. Counseling and/or coordination of care with other physicians, other qualified health care professionals, or agencies are provided consistent with the nature of the problem(s) and the patient's and/or family's needs. Usually, the presenting problem(s) are of moderate to high severity. The patient may be unstable or may have developed a significant new problem requiring immediate physician attention. Typically, 60 minutes are spent with the patient and/or family or caregiver."
        }, {
          "system": "http://snomed.info/sct",
          "version": "2020-09",
          "code": "112690009",
          "display": "Hospital admission, boarder, for social reasons (procedure)"
        }, {
          "system": "http://snomed.info/sct",
          "version": "2020-09",
          "code": "183430001",
          "display": "Holiday relief admission (procedure)"
        }, {
          "system": "http://snomed.info/sct",
          "version": "2020-09",
          "code": "183921001",
          "display": "Admission to hospice for respite (procedure)"
        }, {
          "system": "http://snomed.info/sct",
          "version": "2020-09",
          "code": "304567001",
          "display": "Admission for long-term care (procedure)"
        }, {
          "system": "http://snomed.info/sct",
          "version": "2020-09",
          "code": "304568006",
          "display": "Admission for respite care (procedure)"
        }, {
          "system": "http://snomed.info/sct",
          "version": "2020-09",
          "code": "305336008",
          "display": "Admission to hospice (procedure)"
        }, {
          "system": "http://snomed.info/sct",
          "version": "2020-09",
          "code": "305340004",
          "display": "Admission to long stay hospital (procedure)"
        }, {
          "system": "http://snomed.info/sct",
          "version": "2020-09",
          "code": "305381007",
          "display": "Admission to palliative care department (procedure)"
        }, {
          "system": "http://snomed.info/sct",
          "version": "2020-09",
          "code": "306804001",
          "display": "Admission to young disabled unit (procedure)"
        }, {
          "system": "http://snomed.info/sct",
          "version": "2020-09",
          "code": "36723004",
          "display": "Hospital admission, pre-nursing home placement (procedure)"
        }, {
          "system": "http://snomed.info/sct",
          "version": "2020-09",
          "code": "449411000124106",
          "display": "Admission to skilled nursing facility (procedure)"
        }, {
          "system": "http://snomed.info/sct",
          "version": "2020-09",
          "code": "449421000124103",
          "display": "Admission to nursing home (procedure)"
        }, {
          "system": "http://snomed.info/sct",
          "version": "2020-09",
          "code": "449431000124100",
          "display": "Admission to inpatient rehabilitation facility (procedure)"
        } ]
      }
    },
    "request": {
      "method": "PUT",
      "url": "ValueSet/2.16.840.1.113883.3.464.1003.101.12.1084"
    }
  }, {
    "resource": {
      "resourceType": "ValueSet",
      "id": "2.16.840.1.113883.3.464.1003.101.12.1001",
      "url": "http://cts.nlm.nih.gov/fhir/ValueSet/2.16.840.1.113883.3.464.1003.101.12.1001",
      "identifier": [ {
        "system": "urn:ietf:rfc:3986",
        "value": "2.16.840.1.113883.3.464.1003.101.12.1001"
      } ],
      "version": "20180310",
      "name": "OfficeVisit",
      "title": "Office Visit",
      "status": "active",
      "experimental": false,
      "publisher": "NLM",
      "expansion": {
        "identifier": "20210506",
        "timestamp": "2021-07-19T17:22:06-06:00",
        "contains": [ {
          "system": "http://www.ama-assn.org/go/cpt",
          "version": "2020",
          "code": "99201",
          "display": "Office or other outpatient visit for the evaluation and management of a new patient, which requires these 3 key components: A problem focused history; A problem focused examination; Straightforward medical decision making. Counseling and/or coordination of care with other physicians, other qualified health care professionals, or agencies are provided consistent with the nature of the problem(s) and the patient's and/or family's needs. Usually, the presenting problem(s) are self limited or minor. Typically, 10 minutes are spent face-to-face with the patient and/or family."
        }, {
          "system": "http://www.ama-assn.org/go/cpt",
          "version": "2021",
          "code": "99202",
          "display": "Office or other outpatient visit for the evaluation and management of a new patient, which requires a medically appropriate history and/or examination and straightforward medical decision making. When using time for code selection, 15-29 minutes of total time is spent on the date of the encounter."
        }, {
          "system": "http://www.ama-assn.org/go/cpt",
          "version": "2021",
          "code": "99203",
          "display": "Office or other outpatient visit for the evaluation and management of a new patient, which requires a medically appropriate history and/or examination and low level of medical decision making. When using time for code selection, 30-44 minutes of total time is spent on the date of the encounter."
        }, {
          "system": "http://www.ama-assn.org/go/cpt",
          "version": "2021",
          "code": "99204",
          "display": "Office or other outpatient visit for the evaluation and management of a new patient, which requires a medically appropriate history and/or examination and moderate level of medical decision making. When using time for code selection, 45-59 minutes of total time is spent on the date of the encounter."
        }, {
          "system": "http://www.ama-assn.org/go/cpt",
          "version": "2021",
          "code": "99205",
          "display": "Office or other outpatient visit for the evaluation and management of a new patient, which requires a medically appropriate history and/or examination and high level of medical decision making. When using time for code selection, 60-74 minutes of total time is spent on the date of the encounter."
        }, {
          "system": "http://www.ama-assn.org/go/cpt",
          "version": "2021",
          "code": "99212",
          "display": "Office or other outpatient visit for the evaluation and management of an established patient, which requires a medically appropriate history and/or examination and straightforward medical decision making. When using time for code selection, 10-19 minutes of total time is spent on the date of the encounter."
        }, {
          "system": "http://www.ama-assn.org/go/cpt",
          "version": "2021",
          "code": "99213",
          "display": "Office or other outpatient visit for the evaluation and management of an established patient, which requires a medically appropriate history and/or examination and low level of medical decision making. When using time for code selection, 20-29 minutes of total time is spent on the date of the encounter."
        }, {
          "system": "http://www.ama-assn.org/go/cpt",
          "version": "2021",
          "code": "99214",
          "display": "Office or other outpatient visit for the evaluation and management of an established patient, which requires a medically appropriate history and/or examination and moderate level of medical decision making. When using time for code selection, 30-39 minutes of total time is spent on the date of the encounter."
        }, {
          "system": "http://www.ama-assn.org/go/cpt",
          "version": "2021",
          "code": "99215",
          "display": "Office or other outpatient visit for the evaluation and management of an established patient, which requires a medically appropriate history and/or examination and high level of medical decision making. When using time for code selection, 40-54 minutes of total time is spent on the date of the encounter."
        }, {
          "system": "http://snomed.info/sct",
          "version": "2018-03",
          "code": "30346009",
          "display": "Evaluation and management of established outpatient in office or other outpatient facility (procedure)"
        }, {
          "system": "http://snomed.info/sct",
          "version": "2018-03",
          "code": "37894004",
          "display": "Evaluation and management of new outpatient in office or other outpatient facility (procedure)"
        }, {
          "system": "http://snomed.info/sct",
          "version": "2020-09",
          "code": "185463005",
          "display": "Visit out of hours (procedure)"
        }, {
          "system": "http://snomed.info/sct",
          "version": "2020-09",
          "code": "185464004",
          "display": "Out of hours visit - not night visit (procedure)"
        }, {
          "system": "http://snomed.info/sct",
          "version": "2020-09",
          "code": "185465003",
          "display": "Weekend visit (procedure)"
        }, {
          "system": "http://snomed.info/sct",
          "version": "2020-09",
          "code": "3391000175108",
          "display": "Office visit for pediatric care and assessment (procedure)"
        }, {
          "system": "http://snomed.info/sct",
          "version": "2020-09",
          "code": "439740005",
          "display": "Postoperative follow-up visit (procedure)"
        } ]
      }
    },
    "request": {
      "method": "PUT",
      "url": "ValueSet/2.16.840.1.113883.3.464.1003.101.12.1001"
    }
  }, {
    "resource": {
      "resourceType": "ValueSet",
      "id": "2.16.840.1.113883.3.464.1003.101.12.1023",
      "url": "http://cts.nlm.nih.gov/fhir/ValueSet/2.16.840.1.113883.3.464.1003.101.12.1023",
      "identifier": [ {
        "system": "urn:ietf:rfc:3986",
        "value": "2.16.840.1.113883.3.464.1003.101.12.1023"
      } ],
      "version": "20170504",
      "name": "PreventiveCareServices-InitialOfficeVisit,18andUp",
      "title": "Preventive Care Services-Initial Office Visit, 18 and Up",
      "status": "active",
      "experimental": false,
      "publisher": "NLM",
      "expansion": {
        "identifier": "20210506",
        "timestamp": "2021-07-19T17:22:06-06:00",
        "contains": [ {
          "system": "http://www.ama-assn.org/go/cpt",
          "version": "2021",
          "code": "99385",
          "display": "Initial comprehensive preventive medicine evaluation and management of an individual including an age and gender appropriate history, examination, counseling/anticipatory guidance/risk factor reduction interventions, and the ordering of laboratory/diagnostic procedures, new patient; 18-39 years"
        }, {
          "system": "http://www.ama-assn.org/go/cpt",
          "version": "2021",
          "code": "99386",
          "display": "Initial comprehensive preventive medicine evaluation and management of an individual including an age and gender appropriate history, examination, counseling/anticipatory guidance/risk factor reduction interventions, and the ordering of laboratory/diagnostic procedures, new patient; 40-64 years"
        }, {
          "system": "http://www.ama-assn.org/go/cpt",
          "version": "2021",
          "code": "99387",
          "display": "Initial comprehensive preventive medicine evaluation and management of an individual including an age and gender appropriate history, examination, counseling/anticipatory guidance/risk factor reduction interventions, and the ordering of laboratory/diagnostic procedures, new patient; 65 years and older"
        } ]
      }
    },
    "request": {
      "method": "PUT",
      "url": "ValueSet/2.16.840.1.113883.3.464.1003.101.12.1023"
    }
  }, {
    "resource": {
      "resourceType": "Condition",
      "id": "hist-closed2-HCC189",
      "meta": {
        "profile": [ "http://hl7.org/fhir/us/core/StructureDefinition/us-core-condition" ]
      },
      "clinicalStatus": {
        "coding": [ {
          "system": "http://terminology.hl7.org/CodeSystem/condition-clinical",
          "code": "active",
          "display": "Active"
        } ],
        "text": "Active"
      },
      "verificationStatus": {
        "coding": [ {
          "system": "http://terminology.hl7.org/CodeSystem/condition-ver-status",
          "code": "confirmed",
          "display": "Confirmed"
        } ],
        "text": "Confirmed"
      },
      "category": [ {
        "coding": [ {
          "system": "http://terminology.hl7.org/CodeSystem/condition-category",
          "code": "encounter-diagnosis",
          "display": "Encounter Diagnosis"
        } ],
        "text": "Encounter Diagnosis"
      } ],
      "code": {
        "coding": [ {
          "system": "http://terminology.hl7.org/CodeSystem/cmshcc",
          "code": "189",
          "display": "Amputation Status, Lower Limb/Amputation Complications"
        } ],
        "text": "189: Amputation Status, Lower Limb/Amputation Complications"
      },
      "subject": {
        "reference": "Patient/hist-closed-HCC189"
      },
      "onsetDateTime": "2020-01-31"
    },
    "request": {
      "method": "PUT",
      "url": "Condition/hist-closed2-HCC189"
    }
  }, {
    "resource": {
      "resourceType": "Condition",
      "id": "netnew-HCC189",
      "meta": {
        "profile": [ "http://hl7.org/fhir/us/core/StructureDefinition/us-core-condition" ]
      },
      "clinicalStatus": {
        "coding": [ {
          "system": "http://terminology.hl7.org/CodeSystem/condition-clinical",
          "code": "active",
          "display": "Active"
        } ],
        "text": "Active"
      },
      "verificationStatus": {
        "coding": [ {
          "system": "http://terminology.hl7.org/CodeSystem/condition-ver-status",
          "code": "confirmed",
          "display": "Confirmed"
        } ],
        "text": "Confirmed"
      },
      "category": [ {
        "coding": [ {
          "system": "http://terminology.hl7.org/CodeSystem/condition-category",
          "code": "encounter-diagnosis",
          "display": "Encounter Diagnosis"
        } ],
        "text": "Encounter Diagnosis"
      } ],
      "code": {
        "coding": [ {
          "system": "http://terminology.hl7.org/CodeSystem/cmshcc",
          "code": "189",
          "display": "Amputation Status, Lower Limb/Amputation Complications"
        } ],
        "text": "189: Amputation Status, Lower Limb/Amputation Complications"
      },
      "subject": {
        "reference": "Patient/netnew-HCC189"
      },
      "onsetDateTime": "2022-01-31"
    },
    "request": {
      "method": "PUT",
      "url": "Condition/netnew-HCC189"
    }
  }, {
    "resource": {
      "resourceType": "ValueSet",
      "id": "2.16.840.1.113883.3.464.1003.101.12.1025",
      "url": "http://cts.nlm.nih.gov/fhir/ValueSet/2.16.840.1.113883.3.464.1003.101.12.1025",
      "identifier": [ {
        "system": "urn:ietf:rfc:3986",
        "value": "2.16.840.1.113883.3.464.1003.101.12.1025"
      } ],
      "version": "20170504",
      "name": "PreventiveCareServices-EstablishedOfficeVisit,18andUp",
      "title": "Preventive Care Services - Established Office Visit, 18 and Up",
      "status": "active",
      "experimental": false,
      "publisher": "NLM",
      "expansion": {
        "identifier": "20210506",
        "timestamp": "2021-07-19T17:22:06-06:00",
        "contains": [ {
          "system": "http://www.ama-assn.org/go/cpt",
          "version": "2021",
          "code": "99395",
          "display": "Periodic comprehensive preventive medicine reevaluation and management of an individual including an age and gender appropriate history, examination, counseling/anticipatory guidance/risk factor reduction interventions, and the ordering of laboratory/diagnostic procedures, established patient; 18-39 years"
        }, {
          "system": "http://www.ama-assn.org/go/cpt",
          "version": "2021",
          "code": "99396",
          "display": "Periodic comprehensive preventive medicine reevaluation and management of an individual including an age and gender appropriate history, examination, counseling/anticipatory guidance/risk factor reduction interventions, and the ordering of laboratory/diagnostic procedures, established patient; 40-64 years"
        }, {
          "system": "http://www.ama-assn.org/go/cpt",
          "version": "2021",
          "code": "99397",
          "display": "Periodic comprehensive preventive medicine reevaluation and management of an individual including an age and gender appropriate history, examination, counseling/anticipatory guidance/risk factor reduction interventions, and the ordering of laboratory/diagnostic procedures, established patient; 65 years and older"
        } ]
      }
    },
    "request": {
      "method": "PUT",
      "url": "ValueSet/2.16.840.1.113883.3.464.1003.101.12.1025"
    }
  }, {
    "resource": {
      "resourceType": "Condition",
      "id": "hist-closed-HCC189",
      "meta": {
        "profile": [ "http://hl7.org/fhir/us/core/StructureDefinition/us-core-condition" ]
      },
      "clinicalStatus": {
        "coding": [ {
          "system": "http://terminology.hl7.org/CodeSystem/condition-clinical",
          "code": "active",
          "display": "Active"
        } ],
        "text": "Active"
      },
      "verificationStatus": {
        "coding": [ {
          "system": "http://terminology.hl7.org/CodeSystem/condition-ver-status",
          "code": "confirmed",
          "display": "Confirmed"
        } ],
        "text": "Confirmed"
      },
      "category": [ {
        "coding": [ {
          "system": "http://terminology.hl7.org/CodeSystem/condition-category",
          "code": "encounter-diagnosis",
          "display": "Encounter Diagnosis"
        } ],
        "text": "Encounter Diagnosis"
      } ],
      "code": {
        "coding": [ {
          "system": "http://terminology.hl7.org/CodeSystem/cmshcc",
          "code": "189",
          "display": "Amputation Status, Lower Limb/Amputation Complications"
        } ],
        "text": "189: Amputation Status, Lower Limb/Amputation Complications"
      },
      "subject": {
        "reference": "Patient/hist-closed-HCC189"
      },
      "onsetDateTime": "2022-01-31"
    },
    "request": {
      "method": "PUT",
      "url": "Condition/hist-closed-HCC189"
    }
  }, {
    "resource": {
      "resourceType": "ValueSet",
      "id": "example-hcc189-exclusion",
      "url": "http://hl7.org/fhir/us/davinci-ra/ValueSet/example-hcc189-exclusion",
      "identifier": [ {
        "value": "example-hcc189-exclusion"
      } ],
      "version": "Working",
      "name": "Example_HCC189_Exclusion",
      "title": "Example HCC189 Exclusion",
      "status": "active",
      "expansion": {
        "timestamp": "2022-07-06T14:51:05-04:00",
        "total": 1,
        "offset": 0,
        "contains": [ {
          "system": "http://hl7.org/fhir/sid/icd-10-cm",
          "code": "M20",
          "display": "Acquired deformities of fingers and toes"
        }, {
          "system": "http://hl7.org/fhir/sid/icd-10-cm",
          "code": "M20.0",
          "display": "Deformity of finger(s)"
        }, {
          "system": "http://hl7.org/fhir/sid/icd-10-cm",
          "code": "M20.1",
          "display": "Hallux valgus (acquired)"
        }, {
          "system": "http://hl7.org/fhir/sid/icd-10-cm",
          "code": "M20.2",
          "display": "Hallux rigidus"
        }, {
          "system": "http://hl7.org/fhir/sid/icd-10-cm",
          "code": "M20.3",
          "display": "Hallux varus (acquired)"
        }, {
          "system": "http://hl7.org/fhir/sid/icd-10-cm",
          "code": "M20.4",
          "display": "Other hammer toe(s) (acquired)"
        }, {
          "system": "http://hl7.org/fhir/sid/icd-10-cm",
          "code": "M20.5",
          "display": "Other deformities of toe(s) (acquired)"
        }, {
          "system": "http://hl7.org/fhir/sid/icd-10-cm",
          "code": "M20.6",
          "display": "Acquired deformities of toe(s), unspecified"
        }, {
          "system": "http://hl7.org/fhir/sid/icd-10-cm",
          "code": "M21",
          "display": "Other acquired deformities of limbs"
        }, {
          "system": "http://hl7.org/fhir/sid/icd-10-cm",
          "code": "M21.0",
          "display": "Valgus deformity, not elsewhere classified"
        }, {
          "system": "http://hl7.org/fhir/sid/icd-10-cm",
          "code": "M21.1",
          "display": "Varus deformity, not elsewhere classified"
        }, {
          "system": "http://hl7.org/fhir/sid/icd-10-cm",
          "code": "M21.2",
          "display": "Flexion deformity"
        }, {
          "system": "http://hl7.org/fhir/sid/icd-10-cm",
          "code": "M21.3",
          "display": "Wrist or foot drop (acquired)"
        }, {
          "system": "http://hl7.org/fhir/sid/icd-10-cm",
          "code": "M21.4",
          "display": "Flat foot [pes planus] (acquired)"
        }, {
          "system": "http://hl7.org/fhir/sid/icd-10-cm",
          "code": "M21.5",
          "display": "Acquired clawhand, clubhand, clawfoot and clubfoot"
        }, {
          "system": "http://hl7.org/fhir/sid/icd-10-cm",
          "code": "M21.6",
          "display": "Other acquired deformities of foot"
        }, {
          "system": "http://hl7.org/fhir/sid/icd-10-cm",
          "code": "M21.7",
          "display": "Unequal limb length (acquired)"
        }, {
          "system": "http://hl7.org/fhir/sid/icd-10-cm",
          "code": "M21.8",
          "display": "Other specified acquired deformities of limbs"
        }, {
          "system": "http://hl7.org/fhir/sid/icd-10-cm",
          "code": "M21.9",
          "display": "Unspecified acquired deformity of limb and hand"
        } ]
      }
    },
    "request": {
      "method": "PUT",
      "url": "ValueSet/example-hcc189-exclusion"
    }
  }, {
    "resource": {
      "resourceType": "Condition",
      "id": "hist-open2-HCC189",
      "meta": {
        "profile": [ "http://hl7.org/fhir/us/core/StructureDefinition/us-core-condition" ]
      },
      "clinicalStatus": {
        "coding": [ {
          "system": "http://terminology.hl7.org/CodeSystem/condition-clinical",
          "code": "active",
          "display": "Active"
        } ],
        "text": "Active"
      },
      "verificationStatus": {
        "coding": [ {
          "system": "http://terminology.hl7.org/CodeSystem/condition-ver-status",
          "code": "confirmed",
          "display": "Confirmed"
        } ],
        "text": "Confirmed"
      },
      "category": [ {
        "coding": [ {
          "system": "http://terminology.hl7.org/CodeSystem/condition-category",
          "code": "encounter-diagnosis",
          "display": "Encounter Diagnosis"
        } ],
        "text": "Encounter Diagnosis"
      } ],
      "code": {
        "coding": [ {
          "system": "http://terminology.hl7.org/CodeSystem/cmshcc",
          "code": "189",
          "display": "Amputation Status, Lower Limb/Amputation Complications"
        } ],
        "text": "189: Amputation Status, Lower Limb/Amputation Complications"
      },
      "subject": {
        "reference": "Patient/hist-open-HCC189"
      },
      "onsetDateTime": "2020-01-31"
    },
    "request": {
      "method": "PUT",
      "url": "Condition/hist-open2-HCC189"
    }
  }, {
    "resource": {
      "resourceType": "Library",
      "id": "MedicareAdvantage",
      "extension": [ {
        "url": "http://hl7.org/fhir/us/cqfmeasures/StructureDefinition/cqfm-softwaresystem",
        "valueReference": {
          "reference": "Device/cqf-tooling"
        }
      } ],
      "url": "http://hl7.org/fhir/us/davinci-ra/Library/MedicareAdvantage",
      "version": "0.0.001",
      "name": "MedicareAdvantage",
      "relatedArtifact": [ {
        "type": "depends-on",
        "display": "FHIR model information",
        "resource": "http://fhir.org/guides/cqf/common/Library/FHIR-ModelInfo|4.0.1"
      }, {
        "type": "depends-on",
        "display": "Library Global",
        "resource": "http://hl7.org/fhir/us/davinci-ra/Library/MATGlobalCommonFunctionsFHIR4|6.1.000"
      }, {
        "type": "depends-on",
        "display": "Library FHIRHelpers",
        "resource": "http://hl7.org/fhir/us/davinci-ra/Library/FHIRHelpers|4.0.001"
      }, {
        "type": "depends-on",
        "display": "Value set Office Visit",
        "resource": "http://cts.nlm.nih.gov/fhir/ValueSet/2.16.840.1.113883.3.464.1003.101.12.1001"
      }, {
        "type": "depends-on",
        "display": "Value set Annual Wellness Visit",
        "resource": "http://cts.nlm.nih.gov/fhir/ValueSet/2.16.840.1.113883.3.526.3.1240"
      }, {
        "type": "depends-on",
        "display": "Value set Preventive Care Services - Established Office Visit, 18 and Up",
        "resource": "http://cts.nlm.nih.gov/fhir/ValueSet/2.16.840.1.113883.3.464.1003.101.12.1025"
      }, {
        "type": "depends-on",
        "display": "Value set Preventive Care Services-Initial Office Visit, 18 and Up",
        "resource": "http://cts.nlm.nih.gov/fhir/ValueSet/2.16.840.1.113883.3.464.1003.101.12.1023"
      }, {
        "type": "depends-on",
        "display": "Value set Hospice care ambulatory",
        "resource": "http://cts.nlm.nih.gov/fhir/ValueSet/2.16.840.1.113762.1.4.1108.15"
      }, {
        "type": "depends-on",
        "display": "Value set Emergency Department Visit",
        "resource": "http://cts.nlm.nih.gov/fhir/ValueSet/2.16.840.1.113883.3.117.1.7.1.292"
      }, {
        "type": "depends-on",
        "display": "Value set Encounter Inpatient",
        "resource": "http://cts.nlm.nih.gov/fhir/ValueSet/2.16.840.1.113883.3.666.5.307"
      }, {
        "type": "depends-on",
        "display": "Value set Acute Inpatient",
        "resource": "http://cts.nlm.nih.gov/fhir/ValueSet/2.16.840.1.113883.3.464.1003.101.12.1083"
      }, {
        "type": "depends-on",
        "display": "Value set Nonacute Inpatient",
        "resource": "http://cts.nlm.nih.gov/fhir/ValueSet/2.16.840.1.113883.3.464.1003.101.12.1084"
      }, {
        "type": "depends-on",
        "display": "Value set Observation",
        "resource": "http://cts.nlm.nih.gov/fhir/ValueSet/2.16.840.1.113883.3.464.1003.101.12.1086"
      } ],
      "parameter": [ {
        "name": "Measurement Period",
        "use": "in",
        "min": 0,
        "max": "1",
        "type": "Period"
      }, {
        "name": "Patient",
        "use": "out",
        "min": 0,
        "max": "1",
        "type": "Patient"
      }, {
        "name": "Clinical Evaluation Period",
        "use": "out",
        "min": 0,
        "max": "1",
        "type": "Period"
      }, {
        "name": "Qualifying Member",
        "use": "out",
        "min": 0,
        "max": "1",
        "type": "boolean"
      }, {
        "name": "HCC Qualifying Encounters with Eligible Providers",
        "use": "out",
        "min": 0,
        "max": "*",
        "type": "Encounter"
      }, {
        "name": "HCC Qualifying Encounters with Eligible Providers during Clinical Evaluation Period",
        "use": "out",
        "min": 0,
        "max": "*",
        "type": "Encounter"
      }, {
        "name": "HCC Qualifying Encounters with Eligible Providers outside Clinical Evaluation Period",
        "use": "out",
        "min": 0,
        "max": "*",
        "type": "Encounter"
      } ],
      "dataRequirement": [ {
        "type": "Patient",
        "profile": [ "http://hl7.org/fhir/StructureDefinition/Patient" ]
      }, {
        "profile": [ "http://hl7.org/fhir/EncounterStatus" ],
        "mustSupport": [ "value" ]
      }, {
        "type": "Encounter",
        "profile": [ "http://hl7.org/fhir/StructureDefinition/Encounter" ],
        "mustSupport": [ "type" ],
        "codeFilter": [ {
          "path": "type",
          "valueSet": "http://cts.nlm.nih.gov/fhir/ValueSet/2.16.840.1.113883.3.464.1003.101.12.1001"
        } ]
      }, {
        "type": "Encounter",
        "profile": [ "http://hl7.org/fhir/StructureDefinition/Encounter" ],
        "mustSupport": [ "type" ],
        "codeFilter": [ {
          "path": "type",
          "valueSet": "http://cts.nlm.nih.gov/fhir/ValueSet/2.16.840.1.113883.3.526.3.1240"
        } ]
      }, {
        "type": "Encounter",
        "profile": [ "http://hl7.org/fhir/StructureDefinition/Encounter" ],
        "mustSupport": [ "type" ],
        "codeFilter": [ {
          "path": "type",
          "valueSet": "http://cts.nlm.nih.gov/fhir/ValueSet/2.16.840.1.113883.3.464.1003.101.12.1025"
        } ]
      }, {
        "type": "Encounter",
        "profile": [ "http://hl7.org/fhir/StructureDefinition/Encounter" ],
        "mustSupport": [ "type" ],
        "codeFilter": [ {
          "path": "type",
          "valueSet": "http://cts.nlm.nih.gov/fhir/ValueSet/2.16.840.1.113883.3.464.1003.101.12.1023"
        } ]
      }, {
        "type": "Encounter",
        "profile": [ "http://hl7.org/fhir/StructureDefinition/Encounter" ],
        "mustSupport": [ "type" ],
        "codeFilter": [ {
          "path": "type",
          "valueSet": "http://cts.nlm.nih.gov/fhir/ValueSet/2.16.840.1.113762.1.4.1108.15"
        } ]
      }, {
        "type": "Encounter",
        "profile": [ "http://hl7.org/fhir/StructureDefinition/Encounter" ],
        "mustSupport": [ "type" ],
        "codeFilter": [ {
          "path": "type",
          "valueSet": "http://cts.nlm.nih.gov/fhir/ValueSet/2.16.840.1.113883.3.117.1.7.1.292"
        } ]
      }, {
        "type": "Encounter",
        "profile": [ "http://hl7.org/fhir/StructureDefinition/Encounter" ],
        "mustSupport": [ "type" ],
        "codeFilter": [ {
          "path": "type",
          "valueSet": "http://cts.nlm.nih.gov/fhir/ValueSet/2.16.840.1.113883.3.666.5.307"
        } ]
      }, {
        "type": "Encounter",
        "profile": [ "http://hl7.org/fhir/StructureDefinition/Encounter" ],
        "mustSupport": [ "type" ],
        "codeFilter": [ {
          "path": "type",
          "valueSet": "http://cts.nlm.nih.gov/fhir/ValueSet/2.16.840.1.113883.3.464.1003.101.12.1083"
        } ]
      }, {
        "type": "Encounter",
        "profile": [ "http://hl7.org/fhir/StructureDefinition/Encounter" ],
        "mustSupport": [ "type" ],
        "codeFilter": [ {
          "path": "type",
          "valueSet": "http://cts.nlm.nih.gov/fhir/ValueSet/2.16.840.1.113883.3.464.1003.101.12.1084"
        } ]
      }, {
        "type": "Encounter",
        "profile": [ "http://hl7.org/fhir/StructureDefinition/Encounter" ],
        "mustSupport": [ "type" ],
        "codeFilter": [ {
          "path": "type",
          "valueSet": "http://cts.nlm.nih.gov/fhir/ValueSet/2.16.840.1.113883.3.464.1003.101.12.1086"
        } ]
      }, {
        "type": "dateTime",
        "profile": [ "http://hl7.org/fhir/dateTime" ],
        "mustSupport": [ "value" ]
      }, {
        "type": "instant",
        "profile": [ "http://hl7.org/fhir/instant" ],
        "mustSupport": [ "value" ]
      }, {
        "type": "date",
        "profile": [ "http://hl7.org/fhir/date" ],
        "mustSupport": [ "value" ]
      }, {
        "type": "Patient",
        "profile": [ "http://hl7.org/fhir/Patient" ],
        "mustSupport": [ "birthDate" ]
      }, {
        "type": "Range",
        "profile": [ "http://hl7.org/fhir/Range" ],
        "mustSupport": [ "low", "high" ]
      } ],
      "content": [ {
        "contentType": "text/cql",
        "data": ""
      }, {
        "contentType": "application/elm+xml",
        "data": ""
      }, {
        "contentType": "application/elm+json",
        "data": ""
      } ]
    },
    "request": {
      "method": "PUT",
      "url": "Library/MedicareAdvantage"
    }
  }, {
    "resource": {
      "resourceType": "Measure",
      "id": "ConditionCategoryPOC",
      "meta": {
        "profile": [ "http://hl7.org/fhir/us/davinci-ra/StructureDefinition/ra-model-measure", "http://hl7.org/fhir/us/cqfmeasures/StructureDefinition/computable-measure-cqfm" ]
      },
      "language": "en",
      "contained": [ {
        "resourceType": "Library",
        "id": "effective-data-requirements",
        "extension": [ {
          "url": "http://hl7.org/fhir/us/cqfmeasures/StructureDefinition/cqfm-logicDefinition",
          "extension": [ {
            "url": "libraryName",
            "valueString": "HCC189"
          }, {
            "url": "name",
            "valueString": "Historic Diagnosis"
          }, {
            "url": "statement",
            "valueString": "define \"Historic Diagnosis\":\n  if \"Historic Population\" then\n    \"HCC189 Historic Encounter Diagnosis\".HCCDiagnosis\n  else null as Condition"
          }, {
            "url": "displaySequence",
            "valueInteger": 0
          } ]
        }, {
          "url": "http://hl7.org/fhir/us/cqfmeasures/StructureDefinition/cqfm-logicDefinition",
          "extension": [ {
            "url": "libraryName",
            "valueString": "HCC189"
          }, {
            "url": "name",
            "valueString": "Net-New Diagnosis"
          }, {
            "url": "statement",
            "valueString": "define \"Net-New Diagnosis\":\n  if \"Net-New Population\" then\n    \"HCC189 Encounter Diagnosis\".HCCDiagnosis\n  else null as Condition"
          }, {
            "url": "displaySequence",
            "valueInteger": 1
          } ]
        }, {
          "url": "http://hl7.org/fhir/us/cqfmeasures/StructureDefinition/cqfm-logicDefinition",
          "extension": [ {
            "url": "libraryName",
            "valueString": "HCC189"
          }, {
            "url": "name",
            "valueString": "Closed Gap Encounter"
          }, {
            "url": "statement",
            "valueString": "// SDE\ndefine \"Closed Gap Encounter\":\n  if not \"Denominator Exclusions\"then\n    \"HCC189 Encounter Diagnosis\".HCCEncounter\n  else null as Encounter"
          }, {
            "url": "displaySequence",
            "valueInteger": 2
          } ]
        }, {
          "url": "http://hl7.org/fhir/us/cqfmeasures/StructureDefinition/cqfm-logicDefinition",
          "extension": [ {
            "url": "libraryName",
            "valueString": "HCC189"
          }, {
            "url": "name",
            "valueString": "Historic Encounter"
          }, {
            "url": "statement",
            "valueString": "// SDE\ndefine \"Historic Encounter\":\n  if \"Historic Population\" then\n    \"HCC189 Historic Encounter Diagnosis\".HCCEncounter\n  else null as Encounter"
          }, {
            "url": "displaySequence",
            "valueInteger": 3
          } ]
        }, {
          "url": "http://hl7.org/fhir/us/cqfmeasures/StructureDefinition/cqfm-logicDefinition",
          "extension": [ {
            "url": "libraryName",
            "valueString": "HCC189"
          }, {
            "url": "name",
            "valueString": "Net-New Encounter"
          }, {
            "url": "statement",
            "valueString": "// SDE\ndefine \"Net-New Encounter\":\n  if \"Net-New Population\" then\n    \"HCC189 Encounter Diagnosis\".HCCEncounter\n  else null as Encounter"
          }, {
            "url": "displaySequence",
            "valueInteger": 4
          } ]
        }, {
          "url": "http://hl7.org/fhir/us/cqfmeasures/StructureDefinition/cqfm-logicDefinition",
          "extension": [ {
            "url": "libraryName",
            "valueString": "HCC189"
          }, {
            "url": "name",
            "valueString": "Suspecting Algorithm"
          }, {
            "url": "statement",
            "valueString": "/** \nSuspected population may be defined by organizations that create suspecting algorithms.\nThis placeholder definition is included for information only */\n// SDEdefine \"Suspecting Algorithm\":\n  null"
          }, {
            "url": "displaySequence",
            "valueInteger": 5
          } ]
        }, {
          "url": "http://hl7.org/fhir/us/cqfmeasures/StructureDefinition/cqfm-logicDefinition",
          "extension": [ {
            "url": "libraryName",
            "valueString": "MedicareAdvantage"
          }, {
            "url": "name",
            "valueString": "HCC Qualifying Encounters with Eligible Providers"
          }, {
            "url": "statement",
            "valueString": "define \"HCC Qualifying Encounters with Eligible Providers\":\n  (\n    [Encounter: \"Office Visit\"]\n    \t\tunion [Encounter: \"Annual Wellness Visit\"]\n    \t\tunion [Encounter: \"Preventive Care Services - Established Office Visit, 18 and Up\"]\n    \t\tunion [Encounter: \"Preventive Care Services-Initial Office Visit, 18 and Up\"]\n    \t\tunion [Encounter: \"Hospice care ambulatory\"]\n        union [Encounter: \"Emergency Department Visit\"]\n        union [Encounter: \"Encounter Inpatient\"]\n        union [Encounter: \"Acute Inpatient\"]\n        union [Encounter: \"Nonacute Inpatient\"]\n        union [Encounter: \"Observation\"]\n  ) ValidEncounter where ValidEncounter.status  = 'finished'"
          }, {
            "url": "displaySequence",
            "valueInteger": 6
          } ]
        }, {
          "url": "http://hl7.org/fhir/us/cqfmeasures/StructureDefinition/cqfm-logicDefinition",
          "extension": [ {
            "url": "libraryName",
            "valueString": "MedicareAdvantage"
          }, {
            "url": "name",
            "valueString": "Clinical Evaluation Period"
          }, {
            "url": "statement",
            "valueString": "define \"Clinical Evaluation Period\":\n  \"Measurement Period\""
          }, {
            "url": "displaySequence",
            "valueInteger": 7
          } ]
        }, {
          "url": "http://hl7.org/fhir/us/cqfmeasures/StructureDefinition/cqfm-logicDefinition",
          "extension": [ {
            "url": "libraryName",
            "valueString": "MedicareAdvantage"
          }, {
            "url": "name",
            "valueString": "HCC Qualifying Encounters with Eligible Providers outside Clinical Evaluation Period"
          }, {
            "url": "statement",
            "valueString": "define \"HCC Qualifying Encounters with Eligible Providers outside Clinical Evaluation Period\":\n    \"HCC Qualifying Encounters with Eligible Providers\" QualifyingEncounter \n        where not (Global.\"Normalize Interval\"(QualifyingEncounter.period) during \"Clinical Evaluation Period\")"
          }, {
            "url": "displaySequence",
            "valueInteger": 8
          } ]
        }, {
          "url": "http://hl7.org/fhir/us/cqfmeasures/StructureDefinition/cqfm-logicDefinition",
          "extension": [ {
            "url": "libraryName",
            "valueString": "HCC189"
          }, {
            "url": "name",
            "valueString": "HCC189 Historic Encounter Diagnosis"
          }, {
            "url": "statement",
            "valueString": "/** Patient has an Encounter Diagnosis of \"Acquired absence of right great toe\": 'Z89.411' outside of the Clinical Evaluation Period (could be prior or after) **/\ndefine \"HCC189 Historic Encounter Diagnosis\":    \n  from \n  MedicareAdvantage.\"HCC Qualifying Encounters with Eligible Providers outside Clinical Evaluation Period\" HCCEncounter,\n    ([Condition] C where C.code in \"Example Acquired Lower Limb Deformities\") HCCDiagnosis\n     where HCCDiagnosis in Global.EncounterDiagnosis(HCCEncounter)"
          }, {
            "url": "displaySequence",
            "valueInteger": 9
          } ]
        }, {
          "url": "http://hl7.org/fhir/us/cqfmeasures/StructureDefinition/cqfm-logicDefinition",
          "extension": [ {
            "url": "libraryName",
            "valueString": "HCC189"
          }, {
            "url": "name",
            "valueString": "HCC189 Exclusions"
          }, {
            "url": "statement",
            "valueString": "/** Patient has an Encounter Diagnosis of the following exclusion conditions during Clinical Evaluation Period\nM20 Acquired deformities of fingers and toes\nM21 Other acquired deformities of limbs */\ndefine \"HCC189 Exclusions\":\n  from\n  MedicareAdvantage.\"HCC Qualifying Encounters with Eligible Providers\" Encounter,\n    ([Condition] C where C.code in \"Example HCC189 Exclusion\") Diagnosis\n      where Diagnosis in Global.EncounterDiagnosis(Encounter)"
          }, {
            "url": "displaySequence",
            "valueInteger": 10
          } ]
        }, {
          "url": "http://hl7.org/fhir/us/cqfmeasures/StructureDefinition/cqfm-logicDefinition",
          "extension": [ {
            "url": "libraryName",
            "valueString": "HCC189"
          }, {
            "url": "name",
            "valueString": "Denominator Exclusions"
          }, {
            "url": "statement",
            "valueString": "define \"Denominator Exclusions\":\n  exists \"HCC189 Exclusions\""
          }, {
            "url": "displaySequence",
            "valueInteger": 11
          } ]
        }, {
          "url": "http://hl7.org/fhir/us/cqfmeasures/StructureDefinition/cqfm-logicDefinition",
          "extension": [ {
            "url": "libraryName",
            "valueString": "HCC189"
          }, {
            "url": "name",
            "valueString": "Historic Population"
          }, {
            "url": "statement",
            "valueString": "// Stratifier\ndefine \"Historic Population\":\n  exists \"HCC189 Historic Encounter Diagnosis\"\n    and not \"Denominator Exclusions\""
          }, {
            "url": "displaySequence",
            "valueInteger": 12
          } ]
        }, {
          "url": "http://hl7.org/fhir/us/cqfmeasures/StructureDefinition/cqfm-logicDefinition",
          "extension": [ {
            "url": "libraryName",
            "valueString": "HCC189"
          }, {
            "url": "name",
            "valueString": "Closed Gap Diagnosis"
          }, {
            "url": "statement",
            "valueString": "// SDE\ndefine \"Closed Gap Diagnosis\":\n  if not \"Denominator Exclusions\" then\n    \"HCC189 Encounter Diagnosis\".HCCDiagnosis\n  else null as Condition"
          }, {
            "url": "displaySequence",
            "valueInteger": 13
          } ]
        }, {
          "url": "http://hl7.org/fhir/us/cqfmeasures/StructureDefinition/cqfm-logicDefinition",
          "extension": [ {
            "url": "libraryName",
            "valueString": "HCC189"
          }, {
            "url": "name",
            "valueString": "Suspected Population"
          }, {
            "url": "statement",
            "valueString": "// Stratifier\ndefine \"Suspected Population\":\n  false\n    and not \"Denominator Exclusions\""
          }, {
            "url": "displaySequence",
            "valueInteger": 14
          } ]
        }, {
          "url": "http://hl7.org/fhir/us/cqfmeasures/StructureDefinition/cqfm-logicDefinition",
          "extension": [ {
            "url": "libraryName",
            "valueString": "HCC189"
          }, {
            "url": "name",
            "valueString": "Numerator"
          }, {
            "url": "statement",
            "valueString": "define \"Numerator\":\n  exists \"Closed Gap Encounter\"\n    and not \"Denominator Exclusions\""
          }, {
            "url": "displaySequence",
            "valueInteger": 15
          } ]
        }, {
          "url": "http://hl7.org/fhir/us/cqfmeasures/StructureDefinition/cqfm-logicDefinition",
          "extension": [ {
            "url": "libraryName",
            "valueString": "HCC189"
          }, {
            "url": "name",
            "valueString": "Exclusion Encounter"
          }, {
            "url": "statement",
            "valueString": "// SDE\ndefine \"Exclusion Encounter\":\n  \"HCC189 Exclusions\""
          }, {
            "url": "displaySequence",
            "valueInteger": 16
          } ]
        }, {
          "url": "http://hl7.org/fhir/us/cqfmeasures/StructureDefinition/cqfm-logicDefinition",
          "extension": [ {
            "url": "libraryName",
            "valueString": "MedicareAdvantage"
          }, {
            "url": "name",
            "valueString": "Qualifying Member"
          }, {
            "url": "statement",
            "valueString": "define \"Qualifying Member\":\n    AgeInYearsAt(date from start of \"Clinical Evaluation Period\") >=65"
          }, {
            "url": "displaySequence",
            "valueInteger": 17
          } ]
        }, {
          "url": "http://hl7.org/fhir/us/cqfmeasures/StructureDefinition/cqfm-logicDefinition",
          "extension": [ {
            "url": "libraryName",
            "valueString": "HCC189"
          }, {
            "url": "name",
            "valueString": "Qualifying Members"
          }, {
            "url": "statement",
            "valueString": "/** Medicare Advantage patients who are age 65 years and older and have an eligible encounter */\ndefine \"Qualifying Members\":\n  MedicareAdvantage.\"Qualifying Member\"\n    and exists MedicareAdvantage.\"HCC Qualifying Encounters with Eligible Providers\""
          }, {
            "url": "displaySequence",
            "valueInteger": 18
          } ]
        }, {
          "url": "http://hl7.org/fhir/us/cqfmeasures/StructureDefinition/cqfm-logicDefinition",
          "extension": [ {
            "url": "libraryName",
            "valueString": "HCC189"
          }, {
            "url": "name",
            "valueString": "Initial Population"
          }, {
            "url": "statement",
            "valueString": "define \"Initial Population\":\n  \"Qualifying Members\""
          }, {
            "url": "displaySequence",
            "valueInteger": 19
          } ]
        }, {
          "url": "http://hl7.org/fhir/us/cqfmeasures/StructureDefinition/cqfm-logicDefinition",
          "extension": [ {
            "url": "libraryName",
            "valueString": "HCC189"
          }, {
            "url": "name",
            "valueString": "Net-New Population"
          }, {
            "url": "statement",
            "valueString": "// Stratifier\ndefine \"Net-New Population\":\n  exists \"Closed Gap Encounter\"\n    and not \"Historic Population\"\n    and not \"Denominator Exclusions\""
          }, {
            "url": "displaySequence",
            "valueInteger": 20
          } ]
        }, {
          "url": "http://hl7.org/fhir/us/cqfmeasures/StructureDefinition/cqfm-logicDefinition",
          "extension": [ {
            "url": "libraryName",
            "valueString": "HCC189"
          }, {
            "url": "name",
            "valueString": "Denominator"
          }, {
            "url": "statement",
            "valueString": "define \"Denominator\":\n  \"Initial Population\"\n    and (\n      \"Historic Population\" \n        or \"Suspected Population\" \n        or \"Net-New Population\" \n        or exists \"Closed Gap Encounter\"\n    )\n    and not \"Denominator Exclusions\""
          }, {
            "url": "displaySequence",
            "valueInteger": 21
          } ]
        } ],
        "status": "active",
        "type": {
          "coding": [ {
            "system": "http://terminology.hl7.org/CodeSystem/library-type",
            "code": "module-definition"
          } ]
        },
        "relatedArtifact": [ {
          "type": "depends-on",
          "display": "Library MedicareAdvantage",
          "resource": "http://hl7.org/fhir/us/davinci-ra/Library/MedicareAdvantage|0.0.001"
        }, {
          "type": "depends-on",
          "display": "Library FHIRHelpers",
          "resource": "http://hl7.org/fhir/us/davinci-ra/Library/FHIRHelpers|4.0.001"
        }, {
          "type": "depends-on",
          "display": "Library Global",
          "resource": "http://hl7.org/fhir/us/davinci-ra/Library/MATGlobalCommonFunctionsFHIR4|6.1.000"
        }, {
          "type": "depends-on",
          "display": "Value set Office Visit",
          "resource": "http://cts.nlm.nih.gov/fhir/ValueSet/2.16.840.1.113883.3.464.1003.101.12.1001"
        }, {
          "type": "depends-on",
          "display": "Value set Annual Wellness Visit",
          "resource": "http://cts.nlm.nih.gov/fhir/ValueSet/2.16.840.1.113883.3.526.3.1240"
        }, {
          "type": "depends-on",
          "display": "Value set Preventive Care Services - Established Office Visit, 18 and Up",
          "resource": "http://cts.nlm.nih.gov/fhir/ValueSet/2.16.840.1.113883.3.464.1003.101.12.1025"
        }, {
          "type": "depends-on",
          "display": "Value set Preventive Care Services-Initial Office Visit, 18 and Up",
          "resource": "http://cts.nlm.nih.gov/fhir/ValueSet/2.16.840.1.113883.3.464.1003.101.12.1023"
        }, {
          "type": "depends-on",
          "display": "Value set Hospice care ambulatory",
          "resource": "http://cts.nlm.nih.gov/fhir/ValueSet/2.16.840.1.113762.1.4.1108.15"
        }, {
          "type": "depends-on",
          "display": "Value set Emergency Department Visit",
          "resource": "http://cts.nlm.nih.gov/fhir/ValueSet/2.16.840.1.113883.3.117.1.7.1.292"
        }, {
          "type": "depends-on",
          "display": "Value set Encounter Inpatient",
          "resource": "http://cts.nlm.nih.gov/fhir/ValueSet/2.16.840.1.113883.3.666.5.307"
        }, {
          "type": "depends-on",
          "display": "Value set Acute Inpatient",
          "resource": "http://cts.nlm.nih.gov/fhir/ValueSet/2.16.840.1.113883.3.464.1003.101.12.1083"
        }, {
          "type": "depends-on",
          "display": "Value set Nonacute Inpatient",
          "resource": "http://cts.nlm.nih.gov/fhir/ValueSet/2.16.840.1.113883.3.464.1003.101.12.1084"
        }, {
          "type": "depends-on",
          "display": "Value set Observation",
          "resource": "http://cts.nlm.nih.gov/fhir/ValueSet/2.16.840.1.113883.3.464.1003.101.12.1086"
        }, {
          "type": "depends-on",
          "display": "Value set Example Acquired Lower Limb Deformities",
          "resource": "http://hl7.org/fhir/us/davinci-ra/ValueSet/example-acquired-lower-limb-deformities"
        }, {
          "type": "depends-on",
          "display": "Value set Example HCC189 Exclusion",
          "resource": "http://hl7.org/fhir/us/davinci-ra/ValueSet/example-hcc189-exclusion"
        } ],
        "parameter": [ {
          "name": "Measurement Period",
          "use": "in",
          "min": 0,
          "max": "1",
          "type": "Period"
        }, {
          "name": "Historic Diagnosis",
          "use": "out",
          "min": 0,
          "max": "1",
          "type": "Any"
        }, {
          "name": "Net-New Diagnosis",
          "use": "out",
          "min": 0,
          "max": "1",
          "type": "Any"
        }, {
          "name": "Closed Gap Encounter",
          "use": "out",
          "min": 0,
          "max": "1",
          "type": "Any"
        }, {
          "name": "Historic Encounter",
          "use": "out",
          "min": 0,
          "max": "1",
          "type": "Any"
        }, {
          "name": "Net-New Encounter",
          "use": "out",
          "min": 0,
          "max": "1",
          "type": "Any"
        }, {
          "name": "Suspecting Algorithm",
          "use": "out",
          "min": 0,
          "max": "1",
          "type": "Any"
        }, {
          "name": "Historic Population",
          "use": "out",
          "min": 0,
          "max": "1",
          "type": "boolean"
        }, {
          "name": "Closed Gap Diagnosis",
          "use": "out",
          "min": 0,
          "max": "1",
          "type": "Any"
        }, {
          "name": "Suspected Population",
          "use": "out",
          "min": 0,
          "max": "1",
          "type": "boolean"
        }, {
          "name": "Numerator",
          "use": "out",
          "min": 0,
          "max": "1",
          "type": "boolean"
        }, {
          "name": "Exclusion Encounter",
          "use": "out",
          "min": 0,
          "max": "*",
          "type": "Any"
        }, {
          "name": "Denominator",
          "use": "out",
          "min": 0,
          "max": "1",
          "type": "boolean"
        }, {
          "name": "Initial Population",
          "use": "out",
          "min": 0,
          "max": "1",
          "type": "boolean"
        }, {
          "name": "Net-New Population",
          "use": "out",
          "min": 0,
          "max": "1",
          "type": "boolean"
        }, {
          "name": "Denominator Exclusions",
          "use": "out",
          "min": 0,
          "max": "1",
          "type": "boolean"
        } ],
        "dataRequirement": [ {
          "profile": [ "http://hl7.org/fhir/EncounterStatus" ],
          "mustSupport": [ "value" ]
        }, {
          "type": "Encounter",
          "profile": [ "http://hl7.org/fhir/StructureDefinition/Encounter" ],
          "mustSupport": [ "type" ],
          "codeFilter": [ {
            "path": "type",
            "valueSet": "http://cts.nlm.nih.gov/fhir/ValueSet/2.16.840.1.113883.3.464.1003.101.12.1001"
          } ]
        }, {
          "type": "Encounter",
          "profile": [ "http://hl7.org/fhir/StructureDefinition/Encounter" ],
          "mustSupport": [ "type" ],
          "codeFilter": [ {
            "path": "type",
            "valueSet": "http://cts.nlm.nih.gov/fhir/ValueSet/2.16.840.1.113883.3.526.3.1240"
          } ]
        }, {
          "type": "Encounter",
          "profile": [ "http://hl7.org/fhir/StructureDefinition/Encounter" ],
          "mustSupport": [ "type" ],
          "codeFilter": [ {
            "path": "type",
            "valueSet": "http://cts.nlm.nih.gov/fhir/ValueSet/2.16.840.1.113883.3.464.1003.101.12.1025"
          } ]
        }, {
          "type": "Encounter",
          "profile": [ "http://hl7.org/fhir/StructureDefinition/Encounter" ],
          "mustSupport": [ "type" ],
          "codeFilter": [ {
            "path": "type",
            "valueSet": "http://cts.nlm.nih.gov/fhir/ValueSet/2.16.840.1.113883.3.464.1003.101.12.1023"
          } ]
        }, {
          "type": "Encounter",
          "profile": [ "http://hl7.org/fhir/StructureDefinition/Encounter" ],
          "mustSupport": [ "type" ],
          "codeFilter": [ {
            "path": "type",
            "valueSet": "http://cts.nlm.nih.gov/fhir/ValueSet/2.16.840.1.113762.1.4.1108.15"
          } ]
        }, {
          "type": "Encounter",
          "profile": [ "http://hl7.org/fhir/StructureDefinition/Encounter" ],
          "mustSupport": [ "type" ],
          "codeFilter": [ {
            "path": "type",
            "valueSet": "http://cts.nlm.nih.gov/fhir/ValueSet/2.16.840.1.113883.3.117.1.7.1.292"
          } ]
        }, {
          "type": "Encounter",
          "profile": [ "http://hl7.org/fhir/StructureDefinition/Encounter" ],
          "mustSupport": [ "type" ],
          "codeFilter": [ {
            "path": "type",
            "valueSet": "http://cts.nlm.nih.gov/fhir/ValueSet/2.16.840.1.113883.3.666.5.307"
          } ]
        }, {
          "type": "Encounter",
          "profile": [ "http://hl7.org/fhir/StructureDefinition/Encounter" ],
          "mustSupport": [ "type" ],
          "codeFilter": [ {
            "path": "type",
            "valueSet": "http://cts.nlm.nih.gov/fhir/ValueSet/2.16.840.1.113883.3.464.1003.101.12.1083"
          } ]
        }, {
          "type": "Encounter",
          "profile": [ "http://hl7.org/fhir/StructureDefinition/Encounter" ],
          "mustSupport": [ "type" ],
          "codeFilter": [ {
            "path": "type",
            "valueSet": "http://cts.nlm.nih.gov/fhir/ValueSet/2.16.840.1.113883.3.464.1003.101.12.1084"
          } ]
        }, {
          "type": "Encounter",
          "profile": [ "http://hl7.org/fhir/StructureDefinition/Encounter" ],
          "mustSupport": [ "type" ],
          "codeFilter": [ {
            "path": "type",
            "valueSet": "http://cts.nlm.nih.gov/fhir/ValueSet/2.16.840.1.113883.3.464.1003.101.12.1086"
          } ]
        }, {
          "type": "dateTime",
          "profile": [ "http://hl7.org/fhir/dateTime" ],
          "mustSupport": [ "value" ]
        }, {
          "type": "instant",
          "profile": [ "http://hl7.org/fhir/instant" ],
          "mustSupport": [ "value" ]
        }, {
          "type": "date",
          "profile": [ "http://hl7.org/fhir/date" ],
          "mustSupport": [ "value" ]
        }, {
          "type": "Patient",
          "profile": [ "http://hl7.org/fhir/StructureDefinition/Patient" ]
        }, {
          "type": "Patient",
          "profile": [ "http://hl7.org/fhir/Patient" ],
          "mustSupport": [ "birthDate" ]
        }, {
          "type": "Range",
          "profile": [ "http://hl7.org/fhir/Range" ],
          "mustSupport": [ "low", "high" ]
        }, {
          "type": "id",
          "profile": [ "http://hl7.org/fhir/id" ],
          "mustSupport": [ "value" ]
        }, {
          "type": "string",
          "profile": [ "http://hl7.org/fhir/string" ],
          "mustSupport": [ "value" ]
        }, {
          "type": "Condition",
          "profile": [ "http://hl7.org/fhir/StructureDefinition/Condition" ],
          "mustSupport": [ "id", "code" ]
        } ]
      } ],
      "extension": [ {
        "url": "http://hl7.org/fhir/us/cqfmeasures/StructureDefinition/cqfm-softwaresystem",
        "valueReference": {
          "reference": "Device/cqf-tooling"
        }
      }, {
        "id": "effective-data-requirements",
        "url": "http://hl7.org/fhir/us/cqfmeasures/StructureDefinition/cqfm-effectiveDataRequirements",
        "valueReference": {
          "reference": "#effective-data-requirements"
        }
      } ],
      "url": "https://build.fhir.org/ig/HL7/davinci-ra/ConditionCategoryPOC",
      "identifier": [ {
        "use": "temp",
        "system": "http://example.org/fhir/server",
        "value": "CMS-HCC"
      } ],
      "version": "0.0.001",
      "name": "ConditionCategoryPOC",
      "title": "Condition Category Proof Of Concept",
      "status": "draft",
      "experimental": true,
      "date": "2022-07-12",
      "publisher": "HL7 International - Clinical Quality Information Work Group",
      "contact": [ {
        "telecom": [ {
          "system": "url",
          "value": "http://www.hl7.org/Special/committees/cqi/index.cfm"
        } ]
      } ],
      "description": "A proof of concept for using CQL to evaluate CMS-HCC Models",
      "effectivePeriod": {
        "start": "2022-01-01",
        "end": "2022-12-31"
      },
      "library": [ "http://hl7.org/fhir/us/davinci-ra/Library/HCC189" ],
      "disclaimer": "This is a proof of concept and not intended for actual use.",
      "scoring": {
        "coding": [ {
          "system": "http://terminology.hl7.org/CodeSystem/measure-scoring",
          "code": "proportion",
          "display": "Proportion"
        } ]
      },
      "type": [ {
        "coding": [ {
          "system": "http://terminology.hl7.org/CodeSystem/measure-type",
          "code": "outcome"
        } ]
      } ],
      "improvementNotation": {
        "coding": [ {
          "system": "http://terminology.hl7.org/CodeSystem/measure-improvement-notation",
          "code": "increase",
          "display": "A higher rate indicates better performance"
        } ]
      },
      "group": [ {
        "code": {
          "coding": [ {
            "system": "http://terminology.hl7.org/CodeSystem/cmshcc",
            "code": "189",
            "display": "Amputation Status, Lower Limb/Amputation Complications"
          } ]
        },
        "population": [ {
          "id": "44dda657-2a78-4760-aee4-a81b2e070c69",
          "code": {
            "coding": [ {
              "system": "http://terminology.hl7.org/CodeSystem/measure-population",
              "code": "initial-population",
              "display": "Initial Population"
            } ]
          },
          "description": "Age 65 years and older with (risk adjustable) eligible encounters.",
          "criteria": {
            "language": "text/cql-identifier",
            "expression": "Initial Population"
          }
        }, {
          "id": "3a8aff03-feea-4087-8e56-95891395466b",
          "code": {
            "coding": [ {
              "system": "http://terminology.hl7.org/CodeSystem/measure-population",
              "code": "denominator",
              "display": "Denominator"
            } ]
          },
          "description": "The Initial Population, minus Exclusions that have Historic, Suspected, Net New, or Closed HCC189 Gaps.",
          "criteria": {
            "language": "text/cql-identifier",
            "expression": "Denominator"
          }
        }, {
          "id": "a3654276-be9f-4233-aa0d-26d00b1336e4",
          "code": {
            "coding": [ {
              "system": "http://terminology.hl7.org/CodeSystem/measure-population",
              "code": "denominator-exclusion",
              "display": "Denominator Exclusion"
            } ]
          },
          "description": "A Condition that excludes the HCC189 Condition.",
          "criteria": {
            "language": "text/cql-identifier",
            "expression": "Denominator Exclusions"
          }
        }, {
          "id": "dfc5e656-55ab-4cfc-a073-757b03a7417f",
          "code": {
            "coding": [ {
              "system": "http://terminology.hl7.org/CodeSystem/measure-population",
              "code": "numerator",
              "display": "Numerator"
            }, {
              "system": "http://hl7.org/fhir/us/davinci-ra/CodeSystem/evidence-status",
              "code": "closed-gap"
            } ]
          },
          "description": "An Encounter with a HCC189 Condition within the Clinical Evaluation Period.",
          "criteria": {
            "language": "text/cql-identifier",
            "expression": "Numerator"
          }
        } ],
        "stratifier": [ {
          "id": "9ab5f42e-dfa3-4504-993f-28199056cff6",
          "code": {
            "coding": [ {
              "system": "http://hl7.org/fhir/us/davinci-ra/CodeSystem/suspect-type",
              "code": "historic"
            } ]
          },
          "criteria": {
            "language": "text/cql.identifier",
            "expression": "Historic Population"
          }
        }, {
          "id": "97e4df34-75d5-4874-942f-d24a5e2dd794",
          "code": {
            "coding": [ {
              "system": "http://hl7.org/fhir/us/davinci-ra/CodeSystem/suspect-type",
              "code": "suspected"
            } ]
          },
          "criteria": {
            "language": "text/cql.identifier",
            "expression": "Suspected Population"
          }
        }, {
          "id": "f1788d06-d229-424f-ab11-d6009c022bce",
          "code": {
            "coding": [ {
              "system": "http://hl7.org/fhir/us/davinci-ra/CodeSystem/suspect-type",
              "code": "net-new"
            } ]
          },
          "criteria": {
            "language": "text/cql.identifier",
            "expression": "Net-New Population"
          }
        } ]
      } ],
      "supplementalData": [ {
        "id": "53739093-31d2-4bf2-a749-6d5170b205e4",
        "usage": [ {
          "coding": [ {
            "system": "http://terminology.hl7.org/CodeSystem/measure-data-usage",
            "code": "supplemental-data"
          } ]
        } ],
        "criteria": {
          "language": "text/cql.identifier",
          "expression": "Exclusion Encounter"
        }
      }, {
        "id": "ef8da0b3-9080-41e2-b9b3-d68855edb4bf",
        "usage": [ {
          "coding": [ {
            "system": "http://terminology.hl7.org/CodeSystem/measure-data-usage",
            "code": "supplemental-data"
          } ]
        } ],
        "criteria": {
          "language": "text/cql.identifier",
          "expression": "Historic Encounter"
        }
      }, {
        "id": "ccd99867-c5a5-4ebd-af25-56fa51b20a14",
        "usage": [ {
          "coding": [ {
            "system": "http://terminology.hl7.org/CodeSystem/measure-data-usage",
            "code": "supplemental-data"
          } ]
        } ],
        "criteria": {
          "language": "text/cql.identifier",
          "expression": "Historic Diagnosis"
        }
      }, {
        "id": "6b0213b3-ae61-4b68-869c-fbbf550365d4",
        "usage": [ {
          "coding": [ {
            "system": "http://terminology.hl7.org/CodeSystem/measure-data-usage",
            "code": "supplemental-data"
          } ]
        } ],
        "criteria": {
          "language": "text/cql.identifier",
          "expression": "Net-New Encounter"
        }
      }, {
        "id": "fbd27696-c18c-4adf-ba0a-96e6c63d64ad",
        "usage": [ {
          "coding": [ {
            "system": "http://terminology.hl7.org/CodeSystem/measure-data-usage",
            "code": "supplemental-data"
          } ]
        } ],
        "criteria": {
          "language": "text/cql.identifier",
          "expression": "Net-New Diagnosis"
        }
      }, {
        "id": "44fde183-23ab-43ce-a10e-1ab48f57cbd5",
        "usage": [ {
          "coding": [ {
            "system": "http://terminology.hl7.org/CodeSystem/measure-data-usage",
            "code": "supplemental-data"
          } ]
        } ],
        "criteria": {
          "language": "text/cql.identifier",
          "expression": "Suspecting Algorithm Encounter"
        }
      }, {
        "id": "862d80f8-de97-4789-91ac-3ce3dfd80eaa",
        "usage": [ {
          "coding": [ {
            "system": "http://terminology.hl7.org/CodeSystem/measure-data-usage",
            "code": "supplemental-data"
          } ]
        } ],
        "criteria": {
          "language": "text/cql.identifier",
          "expression": "Suspecting Algorithm Diagnosis"
        }
      }, {
        "id": "2b28ca39-d3c2-41da-8901-2985e6c96841",
        "usage": [ {
          "coding": [ {
            "system": "http://terminology.hl7.org/CodeSystem/measure-data-usage",
            "code": "supplemental-data"
          } ]
        } ],
        "criteria": {
          "language": "text/cql.identifier",
          "expression": "Evidence Status Encounter"
        }
      }, {
        "id": "e3fe294f-3396-4ada-a9fc-399f88a62605",
        "usage": [ {
          "coding": [ {
            "system": "http://terminology.hl7.org/CodeSystem/measure-data-usage",
            "code": "supplemental-data"
          } ]
        } ],
        "criteria": {
          "language": "text/cql.identifier",
          "expression": "Evidence Status Diagnosis"
        }
      }, {
        "id": "91d7fbe5-4c2e-40fd-bbd3-d5594164b6e1",
        "usage": [ {
          "coding": [ {
            "system": "http://terminology.hl7.org/CodeSystem/measure-data-usage",
            "code": "supplemental-data"
          } ]
        } ],
        "criteria": {
          "language": "text/cql.identifier",
          "expression": "Evidence Status Date"
        }
      } ]
    },
    "request": {
      "method": "PUT",
      "url": "Measure/ConditionCategoryPOC"
    }
  }, {
    "resource": {
      "resourceType": "Library",
      "id": "HCC189",
      "extension": [ {
        "url": "http://hl7.org/fhir/us/cqfmeasures/StructureDefinition/cqfm-softwaresystem",
        "valueReference": {
          "reference": "Device/cqf-tooling"
        }
      } ],
      "url": "http://hl7.org/fhir/us/davinci-ra/Library/HCC189",
      "version": "24.1.001",
      "name": "HCC189",
      "relatedArtifact": [ {
        "type": "depends-on",
        "display": "FHIR model information",
        "resource": "http://fhir.org/guides/cqf/common/Library/FHIR-ModelInfo|4.0.1"
      }, {
        "type": "depends-on",
        "display": "Library Global",
        "resource": "http://hl7.org/fhir/us/davinci-ra/Library/MATGlobalCommonFunctionsFHIR4|6.1.000"
      }, {
        "type": "depends-on",
        "display": "Library FHIRHelpers",
        "resource": "http://hl7.org/fhir/us/davinci-ra/Library/FHIRHelpers|4.0.001"
      }, {
        "type": "depends-on",
        "display": "Library MedicareAdvantage",
        "resource": "http://hl7.org/fhir/us/davinci-ra/Library/MedicareAdvantage|0.0.001"
      }, {
        "type": "depends-on",
        "display": "Value set Example Acquired Lower Limb Deformities",
        "resource": "http://hl7.org/fhir/us/davinci-ra/ValueSet/example-acquired-lower-limb-deformities"
      }, {
        "type": "depends-on",
        "display": "Value set Example HCC189 Exclusion",
        "resource": "http://hl7.org/fhir/us/davinci-ra/ValueSet/example-hcc189-exclusion"
      }, {
        "type": "depends-on",
        "display": "Value set Office Visit",
        "resource": "http://cts.nlm.nih.gov/fhir/ValueSet/2.16.840.1.113883.3.464.1003.101.12.1001"
      }, {
        "type": "depends-on",
        "display": "Value set Annual Wellness Visit",
        "resource": "http://cts.nlm.nih.gov/fhir/ValueSet/2.16.840.1.113883.3.526.3.1240"
      }, {
        "type": "depends-on",
        "display": "Value set Preventive Care Services - Established Office Visit, 18 and Up",
        "resource": "http://cts.nlm.nih.gov/fhir/ValueSet/2.16.840.1.113883.3.464.1003.101.12.1025"
      }, {
        "type": "depends-on",
        "display": "Value set Preventive Care Services-Initial Office Visit, 18 and Up",
        "resource": "http://cts.nlm.nih.gov/fhir/ValueSet/2.16.840.1.113883.3.464.1003.101.12.1023"
      }, {
        "type": "depends-on",
        "display": "Value set Hospice care ambulatory",
        "resource": "http://cts.nlm.nih.gov/fhir/ValueSet/2.16.840.1.113762.1.4.1108.15"
      }, {
        "type": "depends-on",
        "display": "Value set Emergency Department Visit",
        "resource": "http://cts.nlm.nih.gov/fhir/ValueSet/2.16.840.1.113883.3.117.1.7.1.292"
      }, {
        "type": "depends-on",
        "display": "Value set Encounter Inpatient",
        "resource": "http://cts.nlm.nih.gov/fhir/ValueSet/2.16.840.1.113883.3.666.5.307"
      }, {
        "type": "depends-on",
        "display": "Value set Acute Inpatient",
        "resource": "http://cts.nlm.nih.gov/fhir/ValueSet/2.16.840.1.113883.3.464.1003.101.12.1083"
      }, {
        "type": "depends-on",
        "display": "Value set Nonacute Inpatient",
        "resource": "http://cts.nlm.nih.gov/fhir/ValueSet/2.16.840.1.113883.3.464.1003.101.12.1084"
      }, {
        "type": "depends-on",
        "display": "Value set Observation",
        "resource": "http://cts.nlm.nih.gov/fhir/ValueSet/2.16.840.1.113883.3.464.1003.101.12.1086"
      } ],
      "parameter": [ {
        "name": "Measurement Period",
        "use": "in",
        "min": 0,
        "max": "1",
        "type": "Period"
      }, {
        "name": "Patient",
        "use": "out",
        "min": 0,
        "max": "1",
        "type": "Patient"
      }, {
        "name": "Clinical Evaluation Period",
        "use": "out",
        "min": 0,
        "max": "1",
        "type": "Period"
      }, {
        "name": "Qualifying Members",
        "use": "out",
        "min": 0,
        "max": "1",
        "type": "boolean"
      }, {
        "name": "HCC189 Encounter Diagnosis",
        "use": "out",
        "min": 0,
        "max": "*",
        "type": "Any"
      }, {
        "name": "Closed Gap Diagnosis",
        "use": "out",
        "min": 0,
        "max": "1",
        "type": "boolean"
      }, {
        "name": "Initial Population",
        "use": "out",
        "min": 0,
        "max": "1",
        "type": "boolean"
      }, {
        "name": "HCC189 Historic Encounter Diagnosis",
        "use": "out",
        "min": 0,
        "max": "*",
        "type": "Any"
      }, {
        "name": "HCC189 Exclusions",
        "use": "out",
        "min": 0,
        "max": "*",
        "type": "Any"
      }, {
        "name": "Denominator Exclusions",
        "use": "out",
        "min": 0,
        "max": "1",
        "type": "boolean"
      }, {
        "name": "Historic Population",
        "use": "out",
        "min": 0,
        "max": "1",
        "type": "boolean"
      }, {
        "name": "Suspecting Algorithm Encounter",
        "use": "out",
        "min": 0,
        "max": "*",
        "type": "Encounter"
      }, {
        "name": "Suspected Population",
        "use": "out",
        "min": 0,
        "max": "1",
        "type": "boolean"
      }, {
        "name": "Net-New Population",
        "use": "out",
        "min": 0,
        "max": "1",
        "type": "boolean"
      }, {
        "name": "Denominator",
        "use": "out",
        "min": 0,
        "max": "1",
        "type": "boolean"
      }, {
        "name": "Numerator",
        "use": "out",
        "min": 0,
        "max": "1",
        "type": "boolean"
      }, {
        "name": "Exclusion Encounter",
        "use": "out",
        "min": 0,
        "max": "*",
        "type": "Any"
      }, {
        "name": "Historic Encounter",
        "use": "out",
        "min": 0,
        "max": "1",
        "type": "Any"
      }, {
        "name": "Historic Diagnosis",
        "use": "out",
        "min": 0,
        "max": "1",
        "type": "Any"
      }, {
        "name": "Net-New Encounter",
        "use": "out",
        "min": 0,
        "max": "1",
        "type": "Any"
      }, {
        "name": "Net-New Diagnosis",
        "use": "out",
        "min": 0,
        "max": "1",
        "type": "Any"
      }, {
        "name": "Suspecting Algorithm Diagnosis",
        "use": "out",
        "min": 0,
        "max": "*",
        "type": "Condition"
      }, {
        "name": "Evidence Status Encounter",
        "use": "out",
        "min": 0,
        "max": "*",
        "type": "Encounter"
      }, {
        "name": "Evidence Status Diagnosis",
        "use": "out",
        "min": 0,
        "max": "*",
        "type": "Condition"
      }, {
        "name": "Evidence Status Date",
        "use": "out",
        "min": 0,
        "max": "*",
        "type": "dateTime"
      } ],
      "dataRequirement": [ {
        "type": "Patient",
        "profile": [ "http://hl7.org/fhir/StructureDefinition/Patient" ]
      }, {
        "profile": [ "http://hl7.org/fhir/EncounterStatus" ],
        "mustSupport": [ "value" ]
      }, {
        "type": "Encounter",
        "profile": [ "http://hl7.org/fhir/StructureDefinition/Encounter" ],
        "mustSupport": [ "type" ],
        "codeFilter": [ {
          "path": "type",
          "valueSet": "http://cts.nlm.nih.gov/fhir/ValueSet/2.16.840.1.113883.3.464.1003.101.12.1001"
        } ]
      }, {
        "type": "Encounter",
        "profile": [ "http://hl7.org/fhir/StructureDefinition/Encounter" ],
        "mustSupport": [ "type" ],
        "codeFilter": [ {
          "path": "type",
          "valueSet": "http://cts.nlm.nih.gov/fhir/ValueSet/2.16.840.1.113883.3.526.3.1240"
        } ]
      }, {
        "type": "Encounter",
        "profile": [ "http://hl7.org/fhir/StructureDefinition/Encounter" ],
        "mustSupport": [ "type" ],
        "codeFilter": [ {
          "path": "type",
          "valueSet": "http://cts.nlm.nih.gov/fhir/ValueSet/2.16.840.1.113883.3.464.1003.101.12.1025"
        } ]
      }, {
        "type": "Encounter",
        "profile": [ "http://hl7.org/fhir/StructureDefinition/Encounter" ],
        "mustSupport": [ "type" ],
        "codeFilter": [ {
          "path": "type",
          "valueSet": "http://cts.nlm.nih.gov/fhir/ValueSet/2.16.840.1.113883.3.464.1003.101.12.1023"
        } ]
      }, {
        "type": "Encounter",
        "profile": [ "http://hl7.org/fhir/StructureDefinition/Encounter" ],
        "mustSupport": [ "type" ],
        "codeFilter": [ {
          "path": "type",
          "valueSet": "http://cts.nlm.nih.gov/fhir/ValueSet/2.16.840.1.113762.1.4.1108.15"
        } ]
      }, {
        "type": "Encounter",
        "profile": [ "http://hl7.org/fhir/StructureDefinition/Encounter" ],
        "mustSupport": [ "type" ],
        "codeFilter": [ {
          "path": "type",
          "valueSet": "http://cts.nlm.nih.gov/fhir/ValueSet/2.16.840.1.113883.3.117.1.7.1.292"
        } ]
      }, {
        "type": "Encounter",
        "profile": [ "http://hl7.org/fhir/StructureDefinition/Encounter" ],
        "mustSupport": [ "type" ],
        "codeFilter": [ {
          "path": "type",
          "valueSet": "http://cts.nlm.nih.gov/fhir/ValueSet/2.16.840.1.113883.3.666.5.307"
        } ]
      }, {
        "type": "Encounter",
        "profile": [ "http://hl7.org/fhir/StructureDefinition/Encounter" ],
        "mustSupport": [ "type" ],
        "codeFilter": [ {
          "path": "type",
          "valueSet": "http://cts.nlm.nih.gov/fhir/ValueSet/2.16.840.1.113883.3.464.1003.101.12.1083"
        } ]
      }, {
        "type": "Encounter",
        "profile": [ "http://hl7.org/fhir/StructureDefinition/Encounter" ],
        "mustSupport": [ "type" ],
        "codeFilter": [ {
          "path": "type",
          "valueSet": "http://cts.nlm.nih.gov/fhir/ValueSet/2.16.840.1.113883.3.464.1003.101.12.1084"
        } ]
      }, {
        "type": "Encounter",
        "profile": [ "http://hl7.org/fhir/StructureDefinition/Encounter" ],
        "mustSupport": [ "type" ],
        "codeFilter": [ {
          "path": "type",
          "valueSet": "http://cts.nlm.nih.gov/fhir/ValueSet/2.16.840.1.113883.3.464.1003.101.12.1086"
        } ]
      }, {
        "type": "dateTime",
        "profile": [ "http://hl7.org/fhir/dateTime" ],
        "mustSupport": [ "value" ]
      }, {
        "type": "instant",
        "profile": [ "http://hl7.org/fhir/instant" ],
        "mustSupport": [ "value" ]
      }, {
        "type": "date",
        "profile": [ "http://hl7.org/fhir/date" ],
        "mustSupport": [ "value" ]
      }, {
        "type": "Patient",
        "profile": [ "http://hl7.org/fhir/Patient" ],
        "mustSupport": [ "birthDate" ]
      }, {
        "type": "Range",
        "profile": [ "http://hl7.org/fhir/Range" ],
        "mustSupport": [ "low", "high" ]
      }, {
        "type": "id",
        "profile": [ "http://hl7.org/fhir/id" ],
        "mustSupport": [ "value" ]
      }, {
        "type": "string",
        "profile": [ "http://hl7.org/fhir/string" ],
        "mustSupport": [ "value" ]
      }, {
        "type": "Condition",
        "profile": [ "http://hl7.org/fhir/StructureDefinition/Condition" ],
        "mustSupport": [ "id", "code" ]
      } ],
      "content": [ {
        "contentType": "text/cql",
        "data": ""
      }, {
        "contentType": "application/elm+xml",
        "data": ""
      }, {
        "contentType": "application/elm+json",
        "data": ""
      } ]
    },
    "request": {
      "method": "PUT",
      "url": "Library/HCC189"
    }
  }, {
    "resource": {
      "resourceType": "ValueSet",
      "id": "2.16.840.1.113883.3.666.5.307",
      "url": "http://cts.nlm.nih.gov/fhir/ValueSet/2.16.840.1.113883.3.666.5.307",
      "identifier": [ {
        "system": "urn:ietf:rfc:3986",
        "value": "2.16.840.1.113883.3.666.5.307"
      } ],
      "version": "20200307",
      "name": "EncounterInpatient",
      "title": "Encounter Inpatient",
      "status": "active",
      "experimental": false,
      "publisher": "NLM",
      "expansion": {
        "identifier": "20210506",
        "timestamp": "2021-07-19T17:22:05-06:00",
        "contains": [ {
          "system": "http://snomed.info/sct",
          "version": "2020-09",
          "code": "183452005",
          "display": "Emergency hospital admission (procedure)"
        }, {
          "system": "http://snomed.info/sct",
          "version": "2020-09",
          "code": "32485007",
          "display": "Hospital admission (procedure)"
        }, {
          "system": "http://snomed.info/sct",
          "version": "2020-09",
          "code": "8715000",
          "display": "Hospital admission, elective (procedure)"
        } ]
      }
    },
    "request": {
      "method": "PUT",
      "url": "ValueSet/2.16.840.1.113883.3.666.5.307"
    }
  }, {
    "resource": {
      "resourceType": "Encounter",
      "id": "hist-open-HCC189",
      "meta": {
        "profile": [ "http://hl7.org/fhir/us/core/StructureDefinition/us-core-encounter" ]
      },
      "status": "finished",
      "class": {
        "system": "http://terminology.hl7.org/CodeSystem/v3-ActCode",
        "code": "AMB",
        "display": "ambulatory"
      },
      "type": [ {
        "coding": [ {
          "system": "http://www.ama-assn.org/go/cpt",
          "code": "99202"
        } ],
        "text": "Office or other outpatient visit for the evaluation and management of a new patient, which requires a medically appropriate history and/or examination and straightforward medical decision making. When using time for code selection, 15-29 minutes of total time is spent on the date of the encounter."
      } ],
      "subject": {
        "reference": "Patient/hist-open-HCC189"
      },
      "period": {
        "start": "2022-01-31",
        "end": "2022-01-31"
      }
    },
    "request": {
      "method": "PUT",
      "url": "Encounter/hist-open-HCC189"
    }
  }, {
    "resource": {
      "resourceType": "ValueSet",
      "id": "2.16.840.1.113883.3.526.3.1240",
      "url": "http://cts.nlm.nih.gov/fhir/ValueSet/2.16.840.1.113883.3.526.3.1240",
      "identifier": [ {
        "system": "urn:ietf:rfc:3986",
        "value": "2.16.840.1.113883.3.526.3.1240"
      } ],
      "version": "20190315",
      "name": "AnnualWellnessVisit",
      "title": "Annual Wellness Visit",
      "status": "active",
      "experimental": false,
      "publisher": "NLM",
      "expansion": {
        "identifier": "20210506",
        "timestamp": "2021-07-19T17:22:05-06:00",
        "contains": [ {
          "system": "https://www.cms.gov/Medicare/Coding/HCPCSReleaseCodeSets",
          "version": "2021",
          "code": "G0438",
          "display": "Annual wellness visit; includes a personalized prevention plan of service (pps), initial visit"
        }, {
          "system": "https://www.cms.gov/Medicare/Coding/HCPCSReleaseCodeSets",
          "version": "2021",
          "code": "G0439",
          "display": "Annual wellness visit, includes a personalized prevention plan of service (pps), subsequent visit"
        }, {
          "system": "http://snomed.info/sct",
          "version": "2020-09",
          "code": "444971000124105",
          "display": "Annual wellness visit (procedure)"
        }, {
          "system": "http://snomed.info/sct",
          "version": "2020-09",
          "code": "456201000124103",
          "display": "Medicare Annual Wellness Visit (procedure)"
        } ]
      }
    },
    "request": {
      "method": "PUT",
      "url": "ValueSet/2.16.840.1.113883.3.526.3.1240"
    }
  }, {
    "resource": {
      "resourceType": "Condition",
      "id": "exclusion2-HCC189",
      "meta": {
        "profile": [ "http://hl7.org/fhir/us/core/StructureDefinition/us-core-condition" ]
      },
      "clinicalStatus": {
        "coding": [ {
          "system": "http://terminology.hl7.org/CodeSystem/condition-clinical",
          "code": "active",
          "display": "Active"
        } ],
        "text": "Active"
      },
      "verificationStatus": {
        "coding": [ {
          "system": "http://terminology.hl7.org/CodeSystem/condition-ver-status",
          "code": "confirmed",
          "display": "Confirmed"
        } ],
        "text": "Confirmed"
      },
      "category": [ {
        "coding": [ {
          "system": "http://terminology.hl7.org/CodeSystem/condition-category",
          "code": "encounter-diagnosis",
          "display": "Encounter Diagnosis"
        } ],
        "text": "Encounter Diagnosis"
      } ],
      "code": {
        "coding": [ {
          "system": "http://hl7.org/fhir/sid/icd-10-cm",
          "code": "M21",
          "display": "Other acquired deformities of limbs"
        } ],
        "text": "M21: Other acquired deformities of limbs"
      },
      "subject": {
        "reference": "Patient/exclusion-HCC189"
      },
      "onsetDateTime": "2020-01-31"
    },
    "request": {
      "method": "PUT",
      "url": "Condition/exclusion2-HCC189"
    }
  }, {
    "resource": {
      "resourceType": "Condition",
      "id": "exclusion-HCC189",
      "meta": {
        "profile": [ "http://hl7.org/fhir/us/core/StructureDefinition/us-core-condition" ]
      },
      "clinicalStatus": {
        "coding": [ {
          "system": "http://terminology.hl7.org/CodeSystem/condition-clinical",
          "code": "active",
          "display": "Active"
        } ],
        "text": "Active"
      },
      "verificationStatus": {
        "coding": [ {
          "system": "http://terminology.hl7.org/CodeSystem/condition-ver-status",
          "code": "confirmed",
          "display": "Confirmed"
        } ],
        "text": "Confirmed"
      },
      "category": [ {
        "coding": [ {
          "system": "http://terminology.hl7.org/CodeSystem/condition-category",
          "code": "encounter-diagnosis",
          "display": "Encounter Diagnosis"
        } ],
        "text": "Encounter Diagnosis"
      } ],
      "code": {
        "coding": [ {
          "system": "http://terminology.hl7.org/CodeSystem/cmshcc",
          "code": "189",
          "display": "Amputation Status, Lower Limb/Amputation Complications"
        } ],
        "text": "189: Amputation Status, Lower Limb/Amputation Complications"
      },
      "subject": {
        "reference": "Patient/exclusion-HCC189"
      },
      "onsetDateTime": "2022-01-31"
    },
    "request": {
      "method": "PUT",
      "url": "Condition/exclusion-HCC189"
    }
  }, {
    "resource": {
      "resourceType": "ValueSet",
      "id": "2.16.840.1.113762.1.4.1108.15",
      "url": "http://cts.nlm.nih.gov/fhir/ValueSet/2.16.840.1.113762.1.4.1108.15",
      "identifier": [ {
        "system": "urn:ietf:rfc:3986",
        "value": "2.16.840.1.113762.1.4.1108.15"
      } ],
      "version": "20170504",
      "name": "Hospicecareambulatory",
      "title": "Hospice care ambulatory",
      "status": "active",
      "experimental": false,
      "publisher": "NLM",
      "expansion": {
        "identifier": "20210506",
        "timestamp": "2021-07-19T17:22:06-06:00",
        "contains": [ {
          "system": "http://snomed.info/sct",
          "version": "2020-09",
          "code": "385763009",
          "display": "Hospice care (regime/therapy)"
        }, {
          "system": "http://snomed.info/sct",
          "version": "2020-09",
          "code": "385765002",
          "display": "Hospice care management (procedure)"
        } ]
      }
    },
    "request": {
      "method": "PUT",
      "url": "ValueSet/2.16.840.1.113762.1.4.1108.15"
    }
  } ]
}