{
  "resourceType": "Bundle",
  "type": "transaction",
  "entry": [
    {
      "resource": {
        "resourceType": "Patient",
        "id": "ra-patient02",
        "meta": {
          "profile": [
            "http://hl7.org/fhir/us/core/StructureDefinition/us-core-patient"
          ]
        },
        "extension": [
          {
            "url": "http://hl7.org/fhir/us/core/StructureDefinition/us-core-birthsex",
            "valueCode": "M"
          },
          {
            "url": "http://hl7.org/fhir/us/core/StructureDefinition/us-core-race",
            "extension": [
              {
                "url": "ombCategory",
                "valueCoding": {
                  "system": "urn:oid:2.16.840.1.113883.6.238",
                  "code": "2106-3",
                  "display": "White"
                }
              },
              {
                "url": "text",
                "valueString": "White"
              }
            ]
          },
          {
            "url": "http://hl7.org/fhir/us/core/StructureDefinition/us-core-ethnicity",
            "extension": [
              {
                "url": "ombCategory",
                "valueCoding": {
                  "system": "urn:oid:2.16.840.1.113883.6.238",
                  "code": "2186-5",
                  "display": "Not Hispanic or Latino"
                }
              },
              {
                "url": "text",
                "valueString": "Not Hispanic or Latino"
              }
            ]
          }
        ],
        "identifier": [
          {
            "use": "usual",
            "type": {
              "coding": [
                {
                  "system": "http://terminology.hl7.org/CodeSystem/v2-0203",
                  "code": "MR",
                  "display": "Medical record number"
                }
              ]
            },
            "system": "http://hospital.davinci.org",
            "value": "23456"
          }
        ],
        "active": true,
        "name": [
          {
            "use": "official",
            "family": "Everyman",
            "given": [
              "Adam"
            ]
          }
        ],
        "gender": "female",
        "birthDate": "1950-12-16",
        "deceasedBoolean": false,
        "address": [
          {
            "use": "home",
            "line": [
              "2222 Home Street"
            ],
            "city": "Ann Arbor",
            "state": "MI",
            "postalCode": "99999",
            "country": "USA"
          }
        ],
        "maritalStatus": {
          "coding": [
            {
              "system": "http://terminology.hl7.org/CodeSystem/v3-MaritalStatus",
              "code": "M",
              "display": "Married"
            }
          ]
        },
        "communication": [
          {
            "language": {
              "coding": [
                {
                  "system": "urn:ietf:bcp:47",
                  "code": "en-US",
                  "display": "English (Region=United States)"
                }
              ]
            },
            "preferred": true
          }
        ]
      },
      "request": {
        "method": "PUT",
        "url": "Patient/ra-patient02"
      }
    },
    {
      "resource": {
        "resourceType": "Encounter",
        "id": "ra-encounter31pat02",
        "meta": {
          "extension": [{
            "url": "http://hl7.org/fhir/StructureDefinition/instance-name",
            "valueString": "Encounter with Dr Pump on 20210806 for Patient 02"
          },
            {
              "url": "http://hl7.org/fhir/StructureDefinition/instance-description",
              "valueMarkdown": "This is Encounter with Dr Howell on 20210806 for Patient 02."
            }
          ],
          "lastUpdated": "2021-07-14T11:56:57.250-04:00",
          "profile": [
            "http://hl7.org/fhir/us/core/StructureDefinition/us-core-encounter"
          ]
        },
        "status": "finished",
        "class": {
          "system": "http://terminology.hl7.org/CodeSystem/v3-ActCode",
          "code": "AMB",
          "display": "ambulatory"
        },
        "type": [{
          "coding": [{
            "system": "http://www.ama-assn.org/go/cpt",
            "code": "99215"
          }],
          "text": "Office Visit, High Complexity"
        }],
        "subject": {
          "reference": "Patient/ra-patient02"
        },

        "participant": [{
          "individual": {
            "reference": "Practitioner/ra-prac02pat02"
          }
        }],
        "diagnosis": [{
          "condition": {
            "reference": "Condition/ra-condition31pat02"
          }
        }
        ],
        "period": {
          "start": "2021-08-06",
          "end": "2021-08-06"
        },
        "serviceProvider": {
          "reference": "Organization/ra-org02pat02"
        }
      },
      "request": {
        "method": "PUT",
        "url": "Encounter/ra-encounter31pat02"
      }
    },
    {
      "resource": {
        "resourceType": "Condition",
        "id": "ra-condition31pat02",
        "meta": {
          "profile": [
            "http://hl7.org/fhir/us/core/StructureDefinition/us-core-condition"
          ]
        },
        "clinicalStatus": {
          "coding": [
            {
              "system": "http://terminology.hl7.org/CodeSystem/condition-clinical",
              "code": "active",
              "display": "Active"
            }
          ],
          "text": "Active"
        },
        "verificationStatus": {
          "coding": [
            {
              "system": "http://terminology.hl7.org/CodeSystem/condition-ver-status",
              "code": "confirmed",
              "display": "Confirmed"
            }
          ],
          "text": "Confirmed"
        },
        "category": [
          {
            "coding": [
              {
                "system": "http://terminology.hl7.org/CodeSystem/condition-category",
                "code": "encounter-diagnosis",
                "display": "Encounter Diagnosis"
              }
            ],
            "text": "Encounter Diagnosis"
          }
        ],
        "code": {
          "coding": [
            {
              "system": "http://hl7.org/fhir/sid/icd-10-cm",
              "code": "I48.3",
              "display": "Typical atrial flutter"
            }
          ],
          "text": "Typical atrial flutter"
        },
        "subject": {
          "reference": "Patient/ra-patient02"
        },
        "onsetDateTime": "2021-08-06"
      },
      "request": {
        "method": "PUT",
        "url": "Condition/ra-condition31pat02"
      }
    },
    {
      "resource": {
        "resourceType" : "Observation",
        "id" : "ra-obs01pat02",
        "meta" : {
          "extension" : [
            {
              "url" : "http://hl7.org/fhir/StructureDefinition/instance-name",
              "valueString" : "Trypsin [Mass/volume] in Serum or Plasma for Pat01"
            },
            {
              "url" : "http://hl7.org/fhir/StructureDefinition/instance-description",
              "valueMarkdown" : "Trypsin [Mass/volume] in Serum or Plasma for Pat01*."
            }
          ],
          "profile" : [
            "http://hl7.org/fhir/us/core/StructureDefinition/us-core-observation-lab"
          ]
        },
        "status" : "final",
        "category" : [
          {
            "coding" : [
              {
                "system" : "http://terminology.hl7.org/CodeSystem/observation-category",
                "code" : "laboratory",
                "display" : "Laboratory"
              }
            ],
            "text" : "Laboratory"
          }
        ],
        "code" : {
          "coding" : [
            {
              "system" : "http://loinc.org",
              "code" : "33325-2",
              "display" : "Trypsin [Mass/volume] in Serum or Plasma"
            }
          ],
          "text" : "Trypsin [Mass/volume] in Serum or Plasma"
        },
        "subject" : {
          "reference" : "Patient/ra-patient02",
          "display" : "Adam Everyman"
        },
        "effectiveDateTime" : "2019-06-17",
        "valueQuantity" : {
          "value" : 770,
          "unit" : "ng/mL",
          "system" : "http://unitsofmeasure.org"
        },
        "referenceRange" : [
          {
            "low" : {
              "value" : 169,
              "unit" : "ng/mL",
              "system" : "http://unitsofmeasure.org",
              "code" : "ng/mL"
            },
            "high" : {
              "value" : 773,
              "unit" : "ng/mL",
              "system" : "http://unitsofmeasure.org",
              "code" : "mg/dL"
            },
            "type" :
            {
              "coding" : [
                {
                  "system" : "http://terminology.hl7.org/CodeSystem/referencerange-meaning",
                  "code" : "normal",
                  "display" : "Normal Range"
                }
              ],
              "text" : "Normal Range"
            }
          }
        ]
      },
      "request": {
        "method": "PUT",
        "url": "Observation/ra-obs01pat02"
      }
    },
    {
      "resource": {
        "resourceType" : "Organization",
        "id" : "ra-org02pat02",
        "meta" : {
          "extension" : [
            {
              "url" : "http://hl7.org/fhir/StructureDefinition/instance-name",
              "valueString" : "Organization for PAtient 2"
            },
            {
              "url" : "http://hl7.org/fhir/StructureDefinition/instance-description",
              "valueMarkdown" : "Provider Organization for Patient 2 data"
            }
          ],
          "profile" : [
            "http://hl7.org/fhir/us/core/StructureDefinition/us-core-organization"
          ]
        },
        "active" : true,
        "type" : [
          {
            "coding" : [
              {
                "system" : "http://terminology.hl7.org/CodeSystem/organization-type",
                "code" : "prov",
                "display" : "Healthcare Provider"
              }
            ]
          }
        ],
        "name" : "GHH Outpatient Clinic",
        "telecom" : [
          {
            "system" : "phone",
            "value" : "(+1) 555-555-3013 (ext 999)"
          },
          {
            "system" : "email",
            "value" : "patient_question_outpatient_clinic@GHH.com"
          }
        ],
        "address" : [
          {
            "line" : [
              "1060 Village Avenue"
            ],
            "city" : "Ann Harbor",
            "state" : "MI",
            "postalCode" : "99999",
            "country" : "USA"
          }
        ]
      },
      "request": {
        "method": "PUT",
        "url": "Organization/ra-org02pat02"
      }
    },
    {
      "resource": {
        "resourceType": "MeasureReport",
        "id": "ra-measurereport03",
        "meta": {
          "profile": [
            "http://hl7.org/fhir/us/davinci-ra/StructureDefinition/ra-measurereport"
          ]
        },
        "extension": [
          {
            "url": "http://hl7.org/fhir/us/davinci-ra/StructureDefinition/ra-clinicalDataCollectionDeadline",
            "valueDate": "2022-03-31"
          }
        ],
        "status": "complete",
        "type": "individual",
        "measure": "https://build.fhir.org/ig/HL7/davinci-ra/Measure-RAModelExample01",
        "subject": {
          "reference": "Patient/ra-patient02"
        },
        "date": "2021-10-18",
        "reporter": {
          "reference": "Organization/ra-payer01"
        },
        "period": {
          "start": "2021-01-01",
          "end": "2021-09-30"
        },
        "group": [
          {
            "id": "group-001",
            "code": {
              "coding": [
                {
                  "system": "http://terminology.hl7.org/CodeSystem/cmshcc",
                  "version": "24",
                  "code": "96",
                  "display": "Specified Heart.Arrhythmias"
                }
              ],
              "text": "CMS HCC: 96, Specified Heart.Arrhythmias"
            },
            "extension": [
              {
                "url": "http://hl7.org/fhir/us/davinci-ra/StructureDefinition/ra-suspectType",
                "valueCodeableConcept": {
                  "coding": [
                    {
                      "code": "historic",
                      "system": "http://hl7.org/fhir/us/davinci-ra/CodeSystem/suspect-type"
                    }
                  ]
                }
              },
              {
                "url": "http://hl7.org/fhir/us/davinci-ra/StructureDefinition/ra-evidenceStatus",
                "valueCodeableConcept": {
                  "coding": [
                    {
                      "code": "closed-gap",
                      "system": "http://hl7.org/fhir/us/davinci-ra/CodeSystem/evidence-status"
                    }
                  ]
                }
              },
              {
                "url": "http://hl7.org/fhir/us/davinci-ra/StructureDefinition/ra-hierarchicalStatus",
                "valueCodeableConcept": {
                  "coding": [
                    {
                      "code": "applied-not-superseded",
                      "system": "http://hl7.org/fhir/us/davinci-ra/CodeSystem/hierarchical-status"
                    }
                  ]
                }
              }
            ]
          },
          {
            "id": "group-002",
            "code": {
              "coding": [
                {
                  "system": "http://terminology.hl7.org/CodeSystem/cmshcc",
                  "version": "24",
                  "code": "110",
                  "display": "Cystic Fibrosis"
                }
              ],
              "text": "HCC 110: Cystic Fibrosis"
            },
            "extension": [
              {
                "url": "http://hl7.org/fhir/us/davinci-ra/StructureDefinition/ra-suspectType",
                "valueCodeableConcept": {
                  "coding": [
                    {
                      "code": "suspected",
                      "system": "http://hl7.org/fhir/us/davinci-ra/CodeSystem/suspect-type"
                    }
                  ]
                }
              },
              {
                "url": "http://hl7.org/fhir/us/davinci-ra/StructureDefinition/ra-evidenceStatus",
                "valueCodeableConcept": {
                  "coding": [
                    {
                      "code": "open-gap",
                      "system": "http://hl7.org/fhir/us/davinci-ra/CodeSystem/evidence-status"
                    }
                  ]
                }
              },
              {
                "url": "http://hl7.org/fhir/us/davinci-ra/StructureDefinition/ra-evidenceStatusDate",
                "valueDate": "2020-07-15"
              },
              {
                "url": "http://hl7.org/fhir/us/davinci-ra/StructureDefinition/ra-hierarchicalStatus",
                "valueCodeableConcept": {
                  "coding": [
                    {
                      "code": "applied-not-superseded",
                      "system": "http://hl7.org/fhir/us/davinci-ra/CodeSystem/hierarchical-status"
                    }
                  ]
                }
              }
            ]
          }
        ],
        "evaluatedResource": [
          {
            "extension" : [
              {
                "url" : "http://hl7.org/fhir/us/davinci-ra/StructureDefinition/ra-groupReference",
                "valueString" : "group-001"
              }
            ],
            "reference": "Condition/ra-condition31pat02"
          },
          {
            "extension" : [
              {
                "url" : "http://hl7.org/fhir/us/davinci-ra/StructureDefinition/ra-groupReference",
                "valueString" : "group-001"
              }
            ],
            "reference": "Encounter/ra-encounter31pat02"
          },
          {
            "extension": [
              {
                "url": "http://hl7.org/fhir/us/davinci-ra/StructureDefinition/ra-groupReference",
                "valueString": "group-002"
              }
            ],
            "reference": "Observation/ra-obs01pat02"
          },
          {
            "extension" : [
              {
                "url" : "http://hl7.org/fhir/us/davinci-ra/StructureDefinition/ra-groupReference",
                "valueString" : "group-001"
              },
              {
                "url" : "http://hl7.org/fhir/us/davinci-ra/StructureDefinition/ra-groupReference",
                "valueString" : "group-002"
              }
            ],
            "reference": "Patient/ra-patient02"
          }
        ]
      },
      "request": {
        "method": "PUT",
        "url": "MeasureReport/ra-measurereport03"
      }
    },
    {
      "resource": {
        "resourceType": "Condition",
        "id": "ra-measurereport03-resolve",
        "meta": {
          "profile": [
            "http://hl7.org/fhir/us/core/StructureDefinition/us-core-condition"
          ]
        },
        "clinicalStatus": {
          "coding": [
            {
              "system": "http://terminology.hl7.org/CodeSystem/condition-clinical",
              "code": "active",
              "display": "Active"
            }
          ],
          "text": "Active"
        },
        "verificationStatus": {
          "coding": [
            {
              "system": "http://terminology.hl7.org/CodeSystem/condition-ver-status",
              "code": "confirmed",
              "display": "Confirmed"
            }
          ],
          "text": "Confirmed"
        },
        "category": [
          {
            "coding": [
              {
                "system": "http://terminology.hl7.org/CodeSystem/condition-category",
                "code": "encounter-diagnosis",
                "display": "Encounter Diagnosis"
              }
            ],
            "text": "Encounter Diagnosis"
          }
        ],
        "code": {
          "coding": [
            {
              "system": "http://hl7.org/fhir/sid/icd-10-cm",
              "code": "E84.19",
              "display": "Cystic fibrosis with other intestinal manifestations"
            }
          ],
          "text": "E84.19: Cystic fibrosis with other intestinal manifestations"
        },
        "subject": {
          "reference": "Patient/ra-patient02"
        },
        "onsetDateTime": "1978-01-31"
      },
      "request": {
        "method": "PUT",
        "url": "Condition/ra-measurereport03-resolve"
      }
    },
    {
      "resource": {
        "resourceType": "Encounter",
        "id": "ra-measurereport03-resolve",
        "meta": {
          "extension": [{
            "url": "http://hl7.org/fhir/StructureDefinition/instance-name",
            "valueString": "Encounter with Dr Howell on 20210714 for Patient 02"
          },
            {
              "url": "http://hl7.org/fhir/StructureDefinition/instance-description",
              "valueMarkdown": "This is Encounter with Dr Howell on 20210714 for Patient 02."
            }
          ],
          "lastUpdated": "2021-07-14T11:56:57.250-04:00",
          "profile": [
            "http://hl7.org/fhir/us/core/StructureDefinition/us-core-encounter"
          ]
        },
        "status": "finished",
        "class": {
          "system": "http://terminology.hl7.org/CodeSystem/v3-ActCode",
          "code": "AMB",
          "display": "ambulatory"
        },
        "type": [{
          "coding": [{
            "system": "http://www.ama-assn.org/go/cpt",
            "code": "99215"
          }],
          "text": "Office Visit, High Complexity"
        }],
        "subject": {
          "reference": "Patient/ra-patient02"
        },

        "participant": [{
          "individual": {
            "reference": "Practitioner/ra-prac01pat01"
          }
        }],
        "diagnosis": [{
          "condition": {
            "reference": "Condition/ra-measurereport03-resolve"
          }
        }
        ],
        "period": {
          "start": "2021-03-27",
          "end": "2021-03-27"
        },
        "serviceProvider": {
          "reference": "Organization/ra-org02pat02"
        }
      },
      "request": {
        "method": "PUT",
        "url": "Encounter/ra-measurereport03-resolve"
      }
    },
    {
      "resource": {
        "resourceType": "DetectedIssue",
        "id": "ra-measurereport03-resolve",
        "meta": {
          "profile": [
            "http://hl7.org/fhir/us/davinci-ra/StructureDefinition/ra-detectedissue"
          ]
        },
        "extension": [
          {
            "url": "http://hl7.org/fhir/us/davinci-ra/StructureDefinition/ra-groupReference",
            "valueString": "group-002"
          }
        ],
        "modifierExtension": [
          {
            "url": "http://hl7.org/fhir/us/davinci-ra/StructureDefinition/extension-codingGapType",
            "valueCodeableConcept": {
              "coding": [
                {
                  "system": "http://hl7.org/fhir/us/davinci-ra/StructureDefinition/extension-codingGapType",
                  "code": "gap-closure-request"
                }
              ]
            }
          }
        ],
        "status": "preliminary",
        "code": {
          "coding": [
            {
              "system": "http://terminology.hl7.org/CodeSystem/v3-ActCode",
              "code": "CODINGGAP",
              "display": "Coding Gaps"
            }
          ]
        },
        "patient": {
          "reference": "Patient/ra-patient02"
        },
        "implicated": [
          {
            "reference": "MeasureReport/ra-measurereport03"
          }
        ],
        "evidence": [
          {
            "detail": [
              {
                "reference": "MeasureReport/ra-measurereport03"
              }
            ]
          },
          {
            "detail": [
              {
                "reference": "Condition/ra-measurereport03-resolve"
              }
            ]
          },
          {
            "detail": [
              {
                "reference": "Encounter/ra-measurereport03-resolve"
              }
            ]
          }
        ]
      },
      "request": {
        "method": "PUT",
        "url": "DetectedIssue/ra-measurereport03-resolve"
      }
    }
  ]
}